id,trial_index,trial_type,time_elapsed,response,rt,is_extra,color,extra_reason,seen_type,unseen_type,difficulty_label,difficulty_bin,metric_name,metric_diff,raw_value_diff,separation_mode,separation_line,cross_side,lure_bin,lure_bins_present_1,lure_side,lure_sides_1,left_mushroom_name,left_mushroom_image,left_mushroom_value,left_mushroom_type_key,left_mushroom_status,left_mushroom_lure_bin,left_mushroom_lure_distance_norm,left_mushroom_lure_anchor_image,left_mushroom_lure_anchor_type,left_mushroom_lure_anchor_scope,right_mushroom_name,right_mushroom_image,right_mushroom_value,right_mushroom_type_key,right_mushroom_status,right_mushroom_lure_bin,right_mushroom_lure_distance_norm,right_mushroom_lure_anchor_image,right_mushroom_lure_anchor_type,right_mushroom_lure_anchor_scope,selected_side,selected_mushroom_name,selected_mushroom_image,selected_mushroom_value,selected_mushroom_type_key,selected_mushroom_status,selected_mushroom_lure_bin,selected_mushroom_lure_distance_norm,other_mushroom_name,other_mushroom_image,other_mushroom_value,other_mushroom_type_key,other_mushroom_status,other_mushroom_lure_bin,other_mushroom_lure_distance_norm,correct,lure_bins_present_2,lure_sides_2,__source_file__,__row_in_file__,tested_mushroom_name,tested_mushroom_image,tested_mushroom_value,tested_mushroom_type_key,tested_mushroom_lure_bin,tested_mushroom_lure_distance_norm,tested_mushroom_lure_anchor_image,tested_mushroom_lure_anchor_type,tested_mushroom_lure_anchor_scope,event,threshold_ms,phase,memory_subphase,_pid,left_stem_type,left_cap_type,left_stem_size,left_cap_round,left_stim72_id,right_stem_type,right_cap_type,right_stem_size,right_cap_round,right_stim72_id,selected_stem_type,selected_cap_type,selected_stem_size,selected_cap_round,selected_stim72_id,other_stem_type,other_cap_type,other_stem_size,other_cap_round,other_stim72_id,tested_stem_type,tested_cap_type,tested_stem_size,tested_cap_round,tested_stim72_id,chosen_side,chosen_stim72_id,chosen_stem_type,chosen_cap_type,chosen_cap_props,memory_trial_key,lure_bin_trial,difficulty_bin_trial,difficulty_label_trial,separation_mode_trial,cross_side_trial,seen_type_trial,unseen_type_trial,left_mushroom_image_trial,right_mushroom_image_trial,left_mushroom_status_trial,right_mushroom_status_trial,selected_mushroom_status_trial,other_mushroom_status_trial,left_mushroom_lure_bin_trial,right_mushroom_lure_bin_trial,selected_mushroom_lure_bin_trial,other_mushroom_lure_bin_trial,tested_mushroom_lure_bin_trial,memory_lure_bin,memory_difficulty_bin,memory_difficulty_label,memory_color_pair_type,memory_seen_pair_type
55bb9ae7fdf99b26d27fda01,0,memory_choice,2307810,,2591.2000000029802,1,yellow,within_color_far,c:yellow|s:thick|r:round,c:yellow|s:neutral|r:flat,far,3,abs(abs(v-line)_diff),2,6,zero_classifier,0,true,1,1,left,left,yellow-10-0.391--4,yellow-10-0.391--4.png,-4,c:yellow|s:neutral|r:flat,unseen_extra,1,0.3333333333333333,yellow-08-0.332--1.png,c:yellow|s:neutral|r:flat,type,yellow-14-1.994-+2,yellow-14-1.994-+2.png,2,c:yellow|s:thick|r:round,seen_extra,,,,,,right,yellow-14-1.994-+2,yellow-14-1.994-+2.png,2,c:yellow|s:thick|r:round,seen_extra,,,yellow-10-0.391--4,yellow-10-0.391--4.png,-4,c:yellow|s:neutral|r:flat,unseen_extra,1,0.3333333333333333,1,,,data_55bb9ae7fdf99b26d27fda01.csv,998,,,,,,,,,,,,memory,value_judgment,55bb9ae7fdf99b26d27fda01,neutral,flat,10,0.391,67,thick,round,14,1.994,72,thick,round,14,1.994,72,neutral,flat,10,0.391,67,neutral,neutral,,,,right,72,thick,round,stem=thick|cap=round,55bb9ae7fdf99b26d27fda01|0,1,3,far,zero_classifier,true,c:yellow|s:thick|r:round,c:yellow|s:neutral|r:flat,yellow-10-0.391--4.png,yellow-14-1.994-+2.png,unseen_extra,seen_extra,seen_extra,unseen_extra,1,,,1,,1,3,far,within_color,seen_vs_unseen
55bb9ae7fdf99b26d27fda01,1,memory_choice,2309907.399999991,,989.8999999910593,1,white,within_color_far,c:white|s:thin|r:round,c:white|s:neutral|r:neutral,far,3,abs(abs(v-line)_diff),2,4,zero_classifier,0,true,2,2,left,left,white-08-0.965-+1,white-08-0.965-+1.png,1,c:white|s:neutral|r:neutral,unseen_extra,2,0.041999999999999926,white-08-0.923-+1.png,c:white|s:neutral|r:neutral,type,white-04-1.514--3,white-04-1.514--3.png,-3,c:white|s:thin|r:round,seen_extra,,,,,,right,white-04-1.514--3,white-04-1.514--3.png,-3,c:white|s:thin|r:round,seen_extra,,,white-08-0.965-+1,white-08-0.965-+1.png,1,c:white|s:neutral|r:neutral,unseen_extra,2,0.041999999999999926,0,,,data_55bb9ae7fdf99b26d27fda01.csv,999,,,,,,,,,,,,memory,value_judgment,55bb9ae7fdf99b26d27fda01,neutral,neutral,8,0.965,59,thin,round,4,1.514,57,thin,round,4,1.514,57,neutral,neutral,8,0.965,59,neutral,neutral,,,,right,57,thin,round,stem=thin|cap=round,55bb9ae7fdf99b26d27fda01|1,2,3,far,zero_classifier,true,c:white|s:thin|r:round,c:white|s:neutral|r:neutral,white-08-0.965-+1.png,white-04-1.514--3.png,unseen_extra,seen_extra,seen_extra,unseen_extra,2,,,2,,2,3,far,within_color,seen_vs_unseen
55bb9ae7fdf99b26d27fda01,2,memory_choice,2312512.199999988,,1391.7000000029802,1,red,within_color_middle,c:red|s:neutral|r:neutral,c:red|s:thin|r:neutral,middle,2,abs(abs(v-line)_diff),2,3,range_middle,5.5,true,2,2,right,right,red-08-0.963-+6,red-08-0.963-+6.png,6,c:red|s:neutral|r:neutral,seen_extra,,,,,,red-03-0.896-+3,red-03-0.896-+3.png,3,c:red|s:thin|r:neutral,unseen_extra,2,0.051000000000000045,red-05-0.845-+2.png,c:red|s:thin|r:neutral,type,left,red-08-0.963-+6,red-08-0.963-+6.png,6,c:red|s:neutral|r:neutral,seen_extra,,,red-03-0.896-+3,red-03-0.896-+3.png,3,c:red|s:thin|r:neutral,unseen_extra,2,0.051000000000000045,1,,,data_55bb9ae7fdf99b26d27fda01.csv,1000,,,,,,,,,,,,memory,value_judgment,55bb9ae7fdf99b26d27fda01,neutral,neutral,8,0.963,50,thin,neutral,3,0.896,47,neutral,neutral,8,0.963,50,thin,neutral,3,0.896,47,neutral,neutral,,,,left,50,neutral,neutral,stem=neutral|cap=neutral,55bb9ae7fdf99b26d27fda01|2,2,2,middle,range_middle,true,c:red|s:neutral|r:neutral,c:red|s:thin|r:neutral,red-08-0.963-+6.png,red-03-0.896-+3.png,seen_extra,unseen_extra,seen_extra,unseen_extra,,2,,2,,2,2,middle,within_color,seen_vs_unseen
55bb9ae7fdf99b26d27fda01,3,memory_choice,2315346.099999994,,1753.8999999910593,0,,,,,,,,,,,,,,,,,yellow-08-0.598--1,yellow-08-0.598--1.png,-1,c:yellow|s:neutral|r:flat,seen,,,,,,cyan-06-0.715-+9,cyan-06-0.715-+9.png,9,c:cyan|s:neutral|r:flat,seen_fallback,,,,,,right,cyan-06-0.715-+9,cyan-06-0.715-+9.png,9,c:cyan|s:neutral|r:flat,seen_fallback,,,yellow-08-0.598--1,yellow-08-0.598--1.png,-1,c:yellow|s:neutral|r:flat,seen,,,1,,,data_55bb9ae7fdf99b26d27fda01.csv,1001,,,,,,,,,,,,memory,value_judgment,55bb9ae7fdf99b26d27fda01,neutral,flat,8,0.598,67,neutral,flat,6,0.715,22,neutral,flat,6,0.715,22,neutral,flat,8,0.598,67,neutral,neutral,,,,right,22,neutral,flat,stem=neutral|cap=flat,55bb9ae7fdf99b26d27fda01|3,,,,,,,,yellow-08-0.598--1.png,cyan-06-0.715-+9.png,seen,seen_fallback,seen_fallback,seen,,,,,,,,,cross_color,seen_vs_seen
55bb9ae7fdf99b26d27fda01,4,memory_choice,2316965.699999988,,565.6000000089407,1,white,within_color_close,c:white|s:thin|r:round,c:white|s:thick|r:flat,close,1,abs(abs(v-line)_diff),1,5,zero_classifier,0,true,2,2,right,right,white-04-1.994--3,white-04-1.994--3.png,-3,c:white|s:thin|r:round,seen_extra,,,,,,white-12-0.202-+2,white-12-0.202-+2.png,2,c:white|s:thick|r:flat,unseen_extra,2,0,white-14-0.225-+3.png,c:white|s:thick|r:flat,type,left,white-04-1.994--3,white-04-1.994--3.png,-3,c:white|s:thin|r:round,seen_extra,,,white-12-0.202-+2,white-12-0.202-+2.png,2,c:white|s:thick|r:flat,unseen_extra,2,0,0,,,data_55bb9ae7fdf99b26d27fda01.csv,1002,,,,,,,,,,,,memory,value_judgment,55bb9ae7fdf99b26d27fda01,thin,round,4,1.994,57,thick,flat,12,0.202,61,thin,round,4,1.994,57,thick,flat,12,0.202,61,neutral,neutral,,,,left,57,thin,round,stem=thin|cap=round,55bb9ae7fdf99b26d27fda01|4,2,1,close,zero_classifier,true,c:white|s:thin|r:round,c:white|s:thick|r:flat,white-04-1.994--3.png,white-12-0.202-+2.png,seen_extra,unseen_extra,seen_extra,unseen_extra,,2,,2,,2,1,close,within_color,seen_vs_unseen
55bb9ae7fdf99b26d27fda01,5,memory_choice,2319317.699999988,,1282.7999999970198,0,,,,,,,,,,,,,2,2,right,right,black-13-1.998-+6,black-13-1.998-+6.png,6,c:black|s:thick|r:round,seen_fallback,,,,,,green-14-1.250--1,green-14-1.250--1.png,-1,c:green|s:thick|r:neutral,seen,2,0.131,green-13-1.119-+2.png,c:green|s:thick|r:neutral,type,right,green-14-1.250--1,green-14-1.250--1.png,-1,c:green|s:thick|r:neutral,seen,2,0.131,black-13-1.998-+6,black-13-1.998-+6.png,6,c:black|s:thick|r:round,seen_fallback,,,0,,,data_55bb9ae7fdf99b26d27fda01.csv,1003,,,,,,,,,,,,memory,value_judgment,55bb9ae7fdf99b26d27fda01,thick,round,13,1.998,9,thick,neutral,14,1.25,35,thick,neutral,14,1.25,35,thick,round,13,1.998,9,neutral,neutral,,,,right,35,thick,neutral,stem=thick|cap=neutral,55bb9ae7fdf99b26d27fda01|5,2,,,,,,,black-13-1.998-+6.png,green-14-1.250--1.png,seen_fallback,seen,seen,seen_fallback,,2,2,,,2,,,cross_color,seen_vs_seen
55bb9ae7fdf99b26d27fda01,6,memory_choice,2321361.099999994,,952.7000000029802,0,,,,,,,,,,,,,,2,,left,white-14-1.778-+4,white-14-1.778-+4.png,4,c:white|s:thick|r:round,seen,2,0,white-14-1.913-+2.png,c:white|s:thick|r:round,type,cyan-04-1.739-+7,cyan-04-1.739-+7.png,7,c:cyan|s:thin|r:round,seen_fallback,2,0,cyan-04-1.684-+9.png,c:cyan|s:thin|r:round,type,right,cyan-04-1.739-+7,cyan-04-1.739-+7.png,7,c:cyan|s:thin|r:round,seen_fallback,2,0,white-14-1.778-+4,white-14-1.778-+4.png,4,c:white|s:thick|r:round,seen,2,0,1,2,right,data_55bb9ae7fdf99b26d27fda01.csv,1004,,,,,,,,,,,,memory,value_judgment,55bb9ae7fdf99b26d27fda01,thick,round,14,1.778,63,thin,round,4,1.739,21,thin,round,4,1.739,21,thick,round,14,1.778,63,neutral,neutral,,,,right,21,thin,round,stem=thin|cap=round,55bb9ae7fdf99b26d27fda01|6,,,,,,,,white-14-1.778-+4.png,cyan-04-1.739-+7.png,seen,seen_fallback,seen_fallback,seen,2,2,2,2,,2,,,cross_color,seen_vs_seen
55bb9ae7fdf99b26d27fda01,7,memory_choice,2323259.399999991,,816.2000000029802,1,cyan,within_color_middle,c:cyan|s:thin|r:neutral,c:cyan|s:thick|r:neutral,middle,2,abs(abs(v-line)_diff),4,6,zero_classifier,0,true,2,2,left,left,cyan-12-1.037--1,cyan-12-1.037--1.png,-1,c:cyan|s:thick|r:neutral,unseen_extra,2,0.028999999999999915,cyan-13-1.008-+1.png,c:cyan|s:thick|r:neutral,type,cyan-04-1.079-+5,cyan-04-1.079-+5.png,5,c:cyan|s:thin|r:neutral,seen_extra,,,,,,left,cyan-12-1.037--1,cyan-12-1.037--1.png,-1,c:cyan|s:thick|r:neutral,unseen_extra,2,0.028999999999999915,cyan-04-1.079-+5,cyan-04-1.079-+5.png,5,c:cyan|s:thin|r:neutral,seen_extra,,,0,,,data_55bb9ae7fdf99b26d27fda01.csv,1005,,,,,,,,,,,,memory,value_judgment,55bb9ae7fdf99b26d27fda01,thick,neutral,12,1.037,26,thin,neutral,4,1.079,20,thick,neutral,12,1.037,26,thin,neutral,4,1.079,20,neutral,neutral,,,,left,26,thick,neutral,stem=thick|cap=neutral,55bb9ae7fdf99b26d27fda01|7,2,2,middle,zero_classifier,true,c:cyan|s:thin|r:neutral,c:cyan|s:thick|r:neutral,cyan-12-1.037--1.png,cyan-04-1.079-+5.png,unseen_extra,seen_extra,unseen_extra,seen_extra,2,,2,,,2,2,middle,within_color,seen_vs_unseen
55bb9ae7fdf99b26d27fda01,8,memory_choice,2326374.599999994,,2025.2000000029802,0,,,,,,,,,,,,,,1,,left,green-03-1.989--1,green-03-1.989--1.png,-1,c:green|s:thin|r:round,seen,1,0.40669412475607647,green-08-1.367-+1.png,c:green|s:neutral|r:neutral,color,black-03-2.000-+2,black-03-2.000-+2.png,2,c:black|s:thin|r:round,seen_fallback,1,0.4245940544933609,black-08-1.337-+3.png,c:black|s:neutral|r:neutral,color,left,green-03-1.989--1,green-03-1.989--1.png,-1,c:green|s:thin|r:round,seen,1,0.40669412475607647,black-03-2.000-+2,black-03-2.000-+2.png,2,c:black|s:thin|r:round,seen_fallback,1,0.4245940544933609,0,1,right,data_55bb9ae7fdf99b26d27fda01.csv,1006,,,,,,,,,,,,memory,value_judgment,55bb9ae7fdf99b26d27fda01,thin,round,3,1.989,30,thin,round,3,2.0,3,thin,round,3,1.989,30,thin,round,3,2.0,3,neutral,neutral,,,,left,30,thin,round,stem=thin|cap=round,55bb9ae7fdf99b26d27fda01|8,,,,,,,,green-03-1.989--1.png,black-03-2.000-+2.png,seen,seen_fallback,seen,seen_fallback,1,1,1,1,,1,,,cross_color,seen_vs_seen
55bb9ae7fdf99b26d27fda01,9,memory_choice,2329005.699999988,,1562.0999999940395,0,,,,,,,,,,,,,,2,,left,magenta-14-1.788--4,magenta-14-1.788--4.png,-4,c:magenta|s:thick|r:round,seen_fallback,2,0,magenta-14-1.999--3.png,c:magenta|s:thick|r:round,type,magenta-07-2.000--5,magenta-07-2.000--5.png,-5,c:magenta|s:neutral|r:round,seen,2,0.16666666666666666,magenta-08-1.665--5.png,c:magenta|s:neutral|r:round,type,right,magenta-07-2.000--5,magenta-07-2.000--5.png,-5,c:magenta|s:neutral|r:round,seen,2,0.16666666666666666,magenta-14-1.788--4,magenta-14-1.788--4.png,-4,c:magenta|s:thick|r:round,seen_fallback,2,0,0,2,right,data_55bb9ae7fdf99b26d27fda01.csv,1007,,,,,,,,,,,,memory,value_judgment,55bb9ae7fdf99b26d27fda01,thick,round,14,1.788,45,neutral,round,7,2.0,42,neutral,round,7,2.0,42,thick,round,14,1.788,45,neutral,neutral,,,,right,42,neutral,round,stem=neutral|cap=round,55bb9ae7fdf99b26d27fda01|9,,,,,,,,magenta-14-1.788--4.png,magenta-07-2.000--5.png,seen_fallback,seen,seen,seen_fallback,2,2,2,2,,2,,,within_color,seen_vs_seen
55bb9ae7fdf99b26d27fda01,10,memory_choice,2331778.099999994,,1552,0,,,,,,,,,,,,,,2,,left,red-12-0.928-+7,red-12-0.928-+7.png,7,c:red|s:thick|r:neutral,seen_fallback,2,0.10099999999999987,red-14-1.029-+8.png,c:red|s:thick|r:neutral,type,cyan-07-1.980-+7,cyan-07-1.980-+7.png,7,c:cyan|s:neutral|r:round,seen_fallback,2,0,cyan-07-1.712-+9.png,c:cyan|s:neutral|r:round,type,left,red-12-0.928-+7,red-12-0.928-+7.png,7,c:red|s:thick|r:neutral,seen_fallback,2,0.10099999999999987,cyan-07-1.980-+7,cyan-07-1.980-+7.png,7,c:cyan|s:neutral|r:round,seen_fallback,2,0,,2,right,data_55bb9ae7fdf99b26d27fda01.csv,1008,,,,,,,,,,,,memory,value_judgment,55bb9ae7fdf99b26d27fda01,thick,neutral,12,0.928,53,neutral,round,7,1.98,24,thick,neutral,12,0.928,53,neutral,round,7,1.98,24,neutral,neutral,,,,left,53,thick,neutral,stem=thick|cap=neutral,55bb9ae7fdf99b26d27fda01|10,,,,,,,,red-12-0.928-+7.png,cyan-07-1.980-+7.png,seen_fallback,seen_fallback,seen_fallback,seen_fallback,2,2,2,2,,2,,,cross_color,seen_vs_seen
55bb9ae7fdf99b26d27fda01,11,memory_choice,2333901.299999997,,931.7999999970198,0,,,,,,,,,,,,,2,2,left,left,white-13-0.240-+3,white-13-0.240-+3.png,3,c:white|s:thick|r:flat,seen,2,0,white-14-0.225-+3.png,c:white|s:thick|r:flat,type,yellow-03-0.206-+3,yellow-03-0.206-+3.png,3,c:yellow|s:thin|r:flat,seen_fallback,,,,,,right,yellow-03-0.206-+3,yellow-03-0.206-+3.png,3,c:yellow|s:thin|r:flat,seen_fallback,,,white-13-0.240-+3,white-13-0.240-+3.png,3,c:white|s:thick|r:flat,seen,2,0,,,,data_55bb9ae7fdf99b26d27fda01.csv,1009,,,,,,,,,,,,memory,value_judgment,55bb9ae7fdf99b26d27fda01,thick,flat,13,0.24,61,thin,flat,3,0.206,64,thin,flat,3,0.206,64,thick,flat,13,0.24,61,neutral,neutral,,,,right,64,thin,flat,stem=thin|cap=flat,55bb9ae7fdf99b26d27fda01|11,2,,,,,,,white-13-0.240-+3.png,yellow-03-0.206-+3.png,seen,seen_fallback,seen_fallback,seen,2,,,2,,2,,,cross_color,seen_vs_seen
55bb9ae7fdf99b26d27fda01,12,memory_choice,2338449.099999994,,3476,1,black,within_color_far,c:black|s:thick|r:round,c:black|s:neutral|r:flat,far,3,abs(abs(v-line)_diff),5,7,zero_classifier,0,true,2,2,right,right,black-14-1.863-+6,black-14-1.863-+6.png,6,c:black|s:thick|r:round,seen_extra,,,,,,black-07-0.488--1,black-07-0.488--1.png,-1,c:black|s:neutral|r:flat,unseen_extra,2,0.16666666666666666,black-03-0.210--1.png,c:black|s:thin|r:flat,color,left,black-14-1.863-+6,black-14-1.863-+6.png,6,c:black|s:thick|r:round,seen_extra,,,black-07-0.488--1,black-07-0.488--1.png,-1,c:black|s:neutral|r:flat,unseen_extra,2,0.16666666666666666,1,,,data_55bb9ae7fdf99b26d27fda01.csv,1010,,,,,,,,,,,,memory,value_judgment,55bb9ae7fdf99b26d27fda01,thick,round,14,1.863,9,neutral,flat,7,0.488,4,thick,round,14,1.863,9,neutral,flat,7,0.488,4,neutral,neutral,,,,left,9,thick,round,stem=thick|cap=round,55bb9ae7fdf99b26d27fda01|12,2,3,far,zero_classifier,true,c:black|s:thick|r:round,c:black|s:neutral|r:flat,black-14-1.863-+6.png,black-07-0.488--1.png,seen_extra,unseen_extra,seen_extra,unseen_extra,,2,,2,,2,3,far,within_color,seen_vs_unseen
55bb9ae7fdf99b26d27fda01,13,memory_choice,2340609.299999997,,1073.3999999910593,0,,,,,,,,,,,,,,2,,left,black-05-0.903-+1,black-05-0.903-+1.png,1,c:black|s:thin|r:neutral,seen,2,0.051000000000000045,black-04-0.852--1.png,c:black|s:thin|r:neutral,type,white-14-1.039-+3,white-14-1.039-+3.png,3,c:white|s:thick|r:neutral,seen_fallback,2,0.04200000000000004,white-14-1.081-+3.png,c:white|s:thick|r:neutral,type,left,black-05-0.903-+1,black-05-0.903-+1.png,1,c:black|s:thin|r:neutral,seen,2,0.051000000000000045,white-14-1.039-+3,white-14-1.039-+3.png,3,c:white|s:thick|r:neutral,seen_fallback,2,0.04200000000000004,0,2,right,data_55bb9ae7fdf99b26d27fda01.csv,1011,,,,,,,,,,,,memory,value_judgment,55bb9ae7fdf99b26d27fda01,thin,neutral,5,0.903,2,thick,neutral,14,1.039,62,thin,neutral,5,0.903,2,thick,neutral,14,1.039,62,neutral,neutral,,,,left,2,thin,neutral,stem=thin|cap=neutral,55bb9ae7fdf99b26d27fda01|13,,,,,,,,black-05-0.903-+1.png,white-14-1.039-+3.png,seen,seen_fallback,seen,seen_fallback,2,2,2,2,,2,,,cross_color,seen_vs_seen
55bb9ae7fdf99b26d27fda01,14,memory_choice,2342574.699999988,,899.0999999940395,1,black,within_color_close,c:black|s:thin|r:neutral,c:black|s:neutral|r:neutral,close,1,abs(abs(v-line)_diff),1,3,zero_classifier,0,true,1,1,right,right,black-04-0.852--1,black-04-0.852--1.png,-1,c:black|s:thin|r:neutral,seen_extra,,,,,,black-07-1.070-+2,black-07-1.070-+2.png,2,c:black|s:neutral|r:neutral,unseen_extra,1,0.3147487534173531,black-08-1.337-+3.png,c:black|s:neutral|r:neutral,type,left,black-04-0.852--1,black-04-0.852--1.png,-1,c:black|s:thin|r:neutral,seen_extra,,,black-07-1.070-+2,black-07-1.070-+2.png,2,c:black|s:neutral|r:neutral,unseen_extra,1,0.3147487534173531,0,,,data_55bb9ae7fdf99b26d27fda01.csv,1012,,,,,,,,,,,,memory,value_judgment,55bb9ae7fdf99b26d27fda01,thin,neutral,4,0.852,2,neutral,neutral,7,1.07,5,thin,neutral,4,0.852,2,neutral,neutral,7,1.07,5,neutral,neutral,,,,left,2,thin,neutral,stem=thin|cap=neutral,55bb9ae7fdf99b26d27fda01|14,1,1,close,zero_classifier,true,c:black|s:thin|r:neutral,c:black|s:neutral|r:neutral,black-04-0.852--1.png,black-07-1.070-+2.png,seen_extra,unseen_extra,seen_extra,unseen_extra,,1,,1,,1,1,close,within_color,seen_vs_unseen
55bb9ae7fdf99b26d27fda01,15,memory_choice,2344309.599999994,,547.2000000029802,0,,,,,,,,,,,,,2,2,right,right,red-03-1.092-+2,red-03-1.092-+2.png,2,c:red|s:thin|r:neutral,seen,,,,,,cyan-14-0.770-+1,cyan-14-0.770-+1.png,1,c:cyan|s:thick|r:flat,seen,2,0.17000000000000004,cyan-12-0.417-+1.png,c:cyan|s:thick|r:flat,type,right,cyan-14-0.770-+1,cyan-14-0.770-+1.png,1,c:cyan|s:thick|r:flat,seen,2,0.17000000000000004,red-03-1.092-+2,red-03-1.092-+2.png,2,c:red|s:thin|r:neutral,seen,,,0,,,data_55bb9ae7fdf99b26d27fda01.csv,1013,,,,,,,,,,,,memory,value_judgment,55bb9ae7fdf99b26d27fda01,thin,neutral,3,1.092,47,thick,flat,14,0.77,25,thick,flat,14,0.77,25,thin,neutral,3,1.092,47,neutral,neutral,,,,right,25,thick,flat,stem=thick|cap=flat,55bb9ae7fdf99b26d27fda01|15,2,,,,,,,red-03-1.092-+2.png,cyan-14-0.770-+1.png,seen,seen,seen,seen,,2,2,,,2,,,cross_color,seen_vs_seen
55bb9ae7fdf99b26d27fda01,16,memory_choice,2346219.199999988,,834.6999999880791,0,,,,,,,,,,,,,2,2,right,right,cyan-14-1.095-+1,cyan-14-1.095-+1.png,1,c:cyan|s:thick|r:neutral,seen,,,,,,cyan-14-1.457-+3,cyan-14-1.457-+3.png,3,c:cyan|s:thick|r:round,seen,2,0.1429999999999999,cyan-14-2.000-+2.png,c:cyan|s:thick|r:round,type,right,cyan-14-1.457-+3,cyan-14-1.457-+3.png,3,c:cyan|s:thick|r:round,seen,2,0.1429999999999999,cyan-14-1.095-+1,cyan-14-1.095-+1.png,1,c:cyan|s:thick|r:neutral,seen,,,1,,,data_55bb9ae7fdf99b26d27fda01.csv,1014,,,,,,,,,,,,memory,value_judgment,55bb9ae7fdf99b26d27fda01,thick,neutral,14,1.095,26,thick,round,14,1.457,27,thick,round,14,1.457,27,thick,neutral,14,1.095,26,neutral,neutral,,,,right,27,thick,round,stem=thick|cap=round,55bb9ae7fdf99b26d27fda01|16,2,,,,,,,cyan-14-1.095-+1.png,cyan-14-1.457-+3.png,seen,seen,seen,seen,,2,2,,,2,,,within_color,seen_vs_seen
55bb9ae7fdf99b26d27fda01,17,memory_choice,2347797.799999997,,498,0,,,,,,,,,,,,,,2,,left,blue-03-0.201-+1,blue-03-0.201-+1.png,1,c:blue|s:thin|r:flat,seen_fallback,2,0,blue-03-0.259-+3.png,c:blue|s:thin|r:flat,type,white-07-1.848-+1,white-07-1.848-+1.png,1,c:white|s:neutral|r:round,seen_fallback,2,0,white-07-1.847--1.png,c:white|s:neutral|r:round,type,left,blue-03-0.201-+1,blue-03-0.201-+1.png,1,c:blue|s:thin|r:flat,seen_fallback,2,0,white-07-1.848-+1,white-07-1.848-+1.png,1,c:white|s:neutral|r:round,seen_fallback,2,0,,2,right,data_55bb9ae7fdf99b26d27fda01.csv,1015,,,,,,,,,,,,memory,value_judgment,55bb9ae7fdf99b26d27fda01,thin,flat,3,0.201,10,neutral,round,7,1.848,60,thin,flat,3,0.201,10,neutral,round,7,1.848,60,neutral,neutral,,,,left,10,thin,flat,stem=thin|cap=flat,55bb9ae7fdf99b26d27fda01|17,,,,,,,,blue-03-0.201-+1.png,white-07-1.848-+1.png,seen_fallback,seen_fallback,seen_fallback,seen_fallback,2,2,2,2,,2,,,cross_color,seen_vs_seen
55bb9ae7fdf99b26d27fda01,18,memory_choice,2349977.599999994,,1096,1,red,within_color_far,c:red|s:neutral|r:neutral,c:red|s:thick|r:round,far,3,abs(abs(v-line)_diff),4,4,range_middle,5.5,false,2,2,left,left,red-14-1.899-+10,red-14-1.899-+10.png,10,c:red|s:thick|r:round,unseen_extra,2,0,red-14-1.866-+10.png,c:red|s:thick|r:round,type,red-08-0.906-+6,red-08-0.906-+6.png,6,c:red|s:neutral|r:neutral,seen_extra,,,,,,right,red-08-0.906-+6,red-08-0.906-+6.png,6,c:red|s:neutral|r:neutral,seen_extra,,,red-14-1.899-+10,red-14-1.899-+10.png,10,c:red|s:thick|r:round,unseen_extra,2,0,0,,,data_55bb9ae7fdf99b26d27fda01.csv,1016,,,,,,,,,,,,memory,value_judgment,55bb9ae7fdf99b26d27fda01,thick,round,14,1.899,54,neutral,neutral,8,0.906,50,neutral,neutral,8,0.906,50,thick,round,14,1.899,54,neutral,neutral,,,,right,50,neutral,neutral,stem=neutral|cap=neutral,55bb9ae7fdf99b26d27fda01|18,2,3,far,range_middle,false,c:red|s:neutral|r:neutral,c:red|s:thick|r:round,red-14-1.899-+10.png,red-08-0.906-+6.png,unseen_extra,seen_extra,seen_extra,unseen_extra,2,,,2,,2,3,far,within_color,seen_vs_unseen
55bb9ae7fdf99b26d27fda01,19,memory_choice,2352065.399999991,,1017.3999999910593,1,black,within_color_middle,c:black|s:thick|r:flat,c:black|s:thin|r:flat,middle,2,abs(abs(v-line)_diff),3,5,zero_classifier,0,true,2,2,left,left,black-03-0.218--1,black-03-0.218--1.png,-1,c:black|s:thin|r:flat,unseen_extra,2,0,black-03-0.210--1.png,c:black|s:thin|r:flat,type,black-14-0.213-+4,black-14-0.213-+4.png,4,c:black|s:thick|r:flat,seen_extra,,,,,,left,black-03-0.218--1,black-03-0.218--1.png,-1,c:black|s:thin|r:flat,unseen_extra,2,0,black-14-0.213-+4,black-14-0.213-+4.png,4,c:black|s:thick|r:flat,seen_extra,,,0,,,data_55bb9ae7fdf99b26d27fda01.csv,1017,,,,,,,,,,,,memory,value_judgment,55bb9ae7fdf99b26d27fda01,thin,flat,3,0.218,1,thick,flat,14,0.213,7,thin,flat,3,0.218,1,thick,flat,14,0.213,7,neutral,neutral,,,,left,1,thin,flat,stem=thin|cap=flat,55bb9ae7fdf99b26d27fda01|19,2,2,middle,zero_classifier,true,c:black|s:thick|r:flat,c:black|s:thin|r:flat,black-03-0.218--1.png,black-14-0.213-+4.png,unseen_extra,seen_extra,unseen_extra,seen_extra,2,,2,,,2,2,middle,within_color,seen_vs_unseen
55bb9ae7fdf99b26d27fda01,20,memory_choice,2353971.099999994,,703.5999999940395,0,,,,,,,,,,,,,,2,,left,red-08-1.860-+1,red-08-1.860-+1.png,1,c:red|s:neutral|r:round,seen,2,0.16666666666666669,red-09-1.872-+8.png,c:red|s:neutral|r:round,type,yellow-04-1.997-+3,yellow-04-1.997-+3.png,3,c:yellow|s:thin|r:round,seen_fallback,2,0,yellow-04-1.998-+2.png,c:yellow|s:thin|r:round,type,right,yellow-04-1.997-+3,yellow-04-1.997-+3.png,3,c:yellow|s:thin|r:round,seen_fallback,2,0,red-08-1.860-+1,red-08-1.860-+1.png,1,c:red|s:neutral|r:round,seen,2,0.16666666666666669,1,2,right,data_55bb9ae7fdf99b26d27fda01.csv,1018,,,,,,,,,,,,memory,value_judgment,55bb9ae7fdf99b26d27fda01,neutral,round,8,1.86,51,thin,round,4,1.997,66,thin,round,4,1.997,66,neutral,round,8,1.86,51,neutral,neutral,,,,right,66,thin,round,stem=thin|cap=round,55bb9ae7fdf99b26d27fda01|20,,,,,,,,red-08-1.860-+1.png,yellow-04-1.997-+3.png,seen,seen_fallback,seen_fallback,seen,2,2,2,2,,2,,,cross_color,seen_vs_seen
55bb9ae7fdf99b26d27fda01,21,memory_choice,2356177.699999988,,1119.2999999970198,0,,,,,,,,,,,,,,2,,left,green-07-0.210-+3,green-07-0.210-+3.png,3,c:green|s:neutral|r:flat,seen,2,0.16666666666666666,green-06-0.249-+4.png,c:green|s:neutral|r:flat,type,black-14-0.533-+4,black-14-0.533-+4.png,4,c:black|s:thick|r:flat,seen_fallback,2,0,black-14-0.206-+5.png,c:black|s:thick|r:flat,type,left,green-07-0.210-+3,green-07-0.210-+3.png,3,c:green|s:neutral|r:flat,seen,2,0.16666666666666666,black-14-0.533-+4,black-14-0.533-+4.png,4,c:black|s:thick|r:flat,seen_fallback,2,0,0,2,right,data_55bb9ae7fdf99b26d27fda01.csv,1019,,,,,,,,,,,,memory,value_judgment,55bb9ae7fdf99b26d27fda01,neutral,flat,7,0.21,31,thick,flat,14,0.533,7,neutral,flat,7,0.21,31,thick,flat,14,0.533,7,neutral,neutral,,,,left,31,neutral,flat,stem=neutral|cap=flat,55bb9ae7fdf99b26d27fda01|21,,,,,,,,green-07-0.210-+3.png,black-14-0.533-+4.png,seen,seen_fallback,seen,seen_fallback,2,2,2,2,,2,,,cross_color,seen_vs_seen
55bb9ae7fdf99b26d27fda01,22,memory_choice,2358295.5,,1043.0999999940395,0,,,,,,,,,,,,,2,2,left,left,black-08-1.267-+3,black-08-1.267-+3.png,3,c:black|s:neutral|r:neutral,seen,2,0.07000000000000006,black-08-1.337-+3.png,c:black|s:neutral|r:neutral,type,red-10-0.280-+10,red-10-0.280-+10.png,10,c:red|s:neutral|r:flat,seen_fallback,,,,,,left,black-08-1.267-+3,black-08-1.267-+3.png,3,c:black|s:neutral|r:neutral,seen,2,0.07000000000000006,red-10-0.280-+10,red-10-0.280-+10.png,10,c:red|s:neutral|r:flat,seen_fallback,,,0,,,data_55bb9ae7fdf99b26d27fda01.csv,1020,,,,,,,,,,,,memory,value_judgment,55bb9ae7fdf99b26d27fda01,neutral,neutral,8,1.267,5,neutral,flat,10,0.28,49,neutral,neutral,8,1.267,5,neutral,flat,10,0.28,49,neutral,neutral,,,,left,5,neutral,neutral,stem=neutral|cap=neutral,55bb9ae7fdf99b26d27fda01|22,2,,,,,,,black-08-1.267-+3.png,red-10-0.280-+10.png,seen,seen_fallback,seen,seen_fallback,2,,2,,,2,,,cross_color,seen_vs_seen
55bb9ae7fdf99b26d27fda01,23,memory_choice,2360447.599999994,,1086.7000000029802,0,,,,,,,,,,,,,,,,,white-03-0.218--3,white-03-0.218--3.png,-3,c:white|s:thin|r:flat,seen,,,,,,blue-06-1.997--5,blue-06-1.997--5.png,-5,c:blue|s:neutral|r:round,seen_fallback,,,,,,right,blue-06-1.997--5,blue-06-1.997--5.png,-5,c:blue|s:neutral|r:round,seen_fallback,,,white-03-0.218--3,white-03-0.218--3.png,-3,c:white|s:thin|r:flat,seen,,,0,,,data_55bb9ae7fdf99b26d27fda01.csv,1021,,,,,,,,,,,,memory,value_judgment,55bb9ae7fdf99b26d27fda01,thin,flat,3,0.218,55,neutral,round,6,1.997,15,neutral,round,6,1.997,15,thin,flat,3,0.218,55,neutral,neutral,,,,right,15,neutral,round,stem=neutral|cap=round,55bb9ae7fdf99b26d27fda01|23,,,,,,,,white-03-0.218--3.png,blue-06-1.997--5.png,seen,seen_fallback,seen_fallback,seen,,,,,,,,,cross_color,seen_vs_seen
55bb9ae7fdf99b26d27fda01,24,memory_choice,2362247.199999988,,712.1999999880791,0,,,,,,,,,,,,,,2,,left,magenta-10-0.202-+1,magenta-10-0.202-+1.png,1,c:magenta|s:neutral|r:flat,seen,2,0.16666666666666663,magenta-09-0.200-+1.png,c:magenta|s:neutral|r:flat,type,green-13-0.209-+3,green-13-0.209-+3.png,3,c:green|s:thick|r:flat,seen_fallback,2,0,green-12-0.207-+3.png,c:green|s:thick|r:flat,type,right,green-13-0.209-+3,green-13-0.209-+3.png,3,c:green|s:thick|r:flat,seen_fallback,2,0,magenta-10-0.202-+1,magenta-10-0.202-+1.png,1,c:magenta|s:neutral|r:flat,seen,2,0.16666666666666663,1,2,right,data_55bb9ae7fdf99b26d27fda01.csv,1022,,,,,,,,,,,,memory,value_judgment,55bb9ae7fdf99b26d27fda01,neutral,flat,10,0.202,40,thick,flat,13,0.209,34,thick,flat,13,0.209,34,neutral,flat,10,0.202,40,neutral,neutral,,,,right,34,thick,flat,stem=thick|cap=flat,55bb9ae7fdf99b26d27fda01|24,,,,,,,,magenta-10-0.202-+1.png,green-13-0.209-+3.png,seen,seen_fallback,seen_fallback,seen,2,2,2,2,,2,,,cross_color,seen_vs_seen
55bb9ae7fdf99b26d27fda01,25,memory_choice,2364402.099999994,,1070.300000011921,1,cyan,within_color_far,c:cyan|s:thick|r:neutral,c:cyan|s:thin|r:neutral,far,3,abs(abs(v-line)_diff),7,9,zero_classifier,0,true,2,2,left,left,cyan-05-0.861-+8,cyan-05-0.861-+8.png,8,c:cyan|s:thin|r:neutral,unseen_extra,2,0.15999999999999992,cyan-04-1.021-+7.png,c:cyan|s:thin|r:neutral,type,cyan-14-1.103--1,cyan-14-1.103--1.png,-1,c:cyan|s:thick|r:neutral,seen_extra,,,,,,left,cyan-05-0.861-+8,cyan-05-0.861-+8.png,8,c:cyan|s:thin|r:neutral,unseen_extra,2,0.15999999999999992,cyan-14-1.103--1,cyan-14-1.103--1.png,-1,c:cyan|s:thick|r:neutral,seen_extra,,,1,,,data_55bb9ae7fdf99b26d27fda01.csv,1023,,,,,,,,,,,,memory,value_judgment,55bb9ae7fdf99b26d27fda01,thin,neutral,5,0.861,20,thick,neutral,14,1.103,26,thin,neutral,5,0.861,20,thick,neutral,14,1.103,26,neutral,neutral,,,,left,20,thin,neutral,stem=thin|cap=neutral,55bb9ae7fdf99b26d27fda01|25,2,3,far,zero_classifier,true,c:cyan|s:thick|r:neutral,c:cyan|s:thin|r:neutral,cyan-05-0.861-+8.png,cyan-14-1.103--1.png,unseen_extra,seen_extra,unseen_extra,seen_extra,2,,2,,,2,3,far,within_color,seen_vs_unseen
55bb9ae7fdf99b26d27fda01,26,memory_choice,2366506.099999994,,998.0999999940395,0,,,,,,,,,,,,,2,2,left,left,blue-08-0.986-+1,blue-08-0.986-+1.png,1,c:blue|s:neutral|r:neutral,seen_fallback,2,0.03600000000000003,blue-08-0.950--2.png,c:blue|s:neutral|r:neutral,type,black-06-0.544--1,black-06-0.544--1.png,-1,c:black|s:neutral|r:flat,seen,,,,,,right,black-06-0.544--1,black-06-0.544--1.png,-1,c:black|s:neutral|r:flat,seen,,,blue-08-0.986-+1,blue-08-0.986-+1.png,1,c:blue|s:neutral|r:neutral,seen_fallback,2,0.03600000000000003,0,,,data_55bb9ae7fdf99b26d27fda01.csv,1024,,,,,,,,,,,,memory,value_judgment,55bb9ae7fdf99b26d27fda01,neutral,neutral,8,0.986,14,neutral,flat,6,0.544,4,neutral,flat,6,0.544,4,neutral,neutral,8,0.986,14,neutral,neutral,,,,right,4,neutral,flat,stem=neutral|cap=flat,55bb9ae7fdf99b26d27fda01|26,2,,,,,,,blue-08-0.986-+1.png,black-06-0.544--1.png,seen_fallback,seen,seen,seen_fallback,2,,,2,,2,,,cross_color,seen_vs_seen
55bb9ae7fdf99b26d27fda01,27,memory_choice,2369099.299999997,,1511.0999999940395,0,,,,,,,,,,,,,2,2,left,left,blue-03-1.998--6,blue-03-1.998--6.png,-6,c:blue|s:thin|r:round,seen_fallback,2,0,blue-04-1.924--5.png,c:blue|s:thin|r:round,type,magenta-14-0.595-+1,magenta-14-0.595-+1.png,1,c:magenta|s:thick|r:flat,seen_fallback,,,,,,left,blue-03-1.998--6,blue-03-1.998--6.png,-6,c:blue|s:thin|r:round,seen_fallback,2,0,magenta-14-0.595-+1,magenta-14-0.595-+1.png,1,c:magenta|s:thick|r:flat,seen_fallback,,,0,,,data_55bb9ae7fdf99b26d27fda01.csv,1025,,,,,,,,,,,,memory,value_judgment,55bb9ae7fdf99b26d27fda01,thin,round,3,1.998,12,thick,flat,14,0.595,43,thin,round,3,1.998,12,thick,flat,14,0.595,43,neutral,neutral,,,,left,12,thin,round,stem=thin|cap=round,55bb9ae7fdf99b26d27fda01|27,2,,,,,,,blue-03-1.998--6.png,magenta-14-0.595-+1.png,seen_fallback,seen_fallback,seen_fallback,seen_fallback,2,,2,,,2,,,cross_color,seen_vs_seen
55bb9ae7fdf99b26d27fda01,28,memory_choice,2371455.199999988,,1285.8999999910593,0,,,,,,,,,,,,,,2,,left,blue-14-1.973-+1,blue-14-1.973-+1.png,1,c:blue|s:thick|r:round,seen,2,0,blue-14-1.730--2.png,c:blue|s:thick|r:round,type,magenta-03-1.911--7,magenta-03-1.911--7.png,-7,c:magenta|s:thin|r:round,seen_fallback,2,0,magenta-05-2.000--6.png,c:magenta|s:thin|r:round,type,left,blue-14-1.973-+1,blue-14-1.973-+1.png,1,c:blue|s:thick|r:round,seen,2,0,magenta-03-1.911--7,magenta-03-1.911--7.png,-7,c:magenta|s:thin|r:round,seen_fallback,2,0,1,2,right,data_55bb9ae7fdf99b26d27fda01.csv,1026,,,,,,,,,,,,memory,value_judgment,55bb9ae7fdf99b26d27fda01,thick,round,14,1.973,18,thin,round,3,1.911,39,thick,round,14,1.973,18,thin,round,3,1.911,39,neutral,neutral,,,,left,18,thick,round,stem=thick|cap=round,55bb9ae7fdf99b26d27fda01|28,,,,,,,,blue-14-1.973-+1.png,magenta-03-1.911--7.png,seen,seen_fallback,seen,seen_fallback,2,2,2,2,,2,,,cross_color,seen_vs_seen
55bb9ae7fdf99b26d27fda01,29,memory_choice,2378757.199999988,,6206.399999991059,0,,,,,,,,,,,,,,2,,left,magenta-04-0.209--2,magenta-04-0.209--2.png,-2,c:magenta|s:thin|r:flat,seen,2,0,magenta-04-0.332--1.png,c:magenta|s:thin|r:flat,type,yellow-07-0.846--2,yellow-07-0.846--2.png,-2,c:yellow|s:neutral|r:neutral,seen,2,0.015000000000000013,yellow-07-0.831--2.png,c:yellow|s:neutral|r:neutral,type,left,magenta-04-0.209--2,magenta-04-0.209--2.png,-2,c:magenta|s:thin|r:flat,seen,2,0,yellow-07-0.846--2,yellow-07-0.846--2.png,-2,c:yellow|s:neutral|r:neutral,seen,2,0.015000000000000013,,2,right,data_55bb9ae7fdf99b26d27fda01.csv,1027,,,,,,,,,,,,memory,value_judgment,55bb9ae7fdf99b26d27fda01,thin,flat,4,0.209,37,neutral,neutral,7,0.846,68,thin,flat,4,0.209,37,neutral,neutral,7,0.846,68,neutral,neutral,,,,left,37,thin,flat,stem=thin|cap=flat,55bb9ae7fdf99b26d27fda01|29,,,,,,,,magenta-04-0.209--2.png,yellow-07-0.846--2.png,seen,seen,seen,seen,2,2,2,2,,2,,,cross_color,seen_vs_seen
55bb9ae7fdf99b26d27fda01,30,memory_choice,2381219.5,,1272.2000000029802,1,green,within_color_far,c:green|s:thin|r:neutral,c:green|s:thin|r:round,far,3,abs(abs(v-line)_diff),2,4,zero_classifier,0,true,1,1,right,right,green-03-1.008-+3,green-03-1.008-+3.png,3,c:green|s:thin|r:neutral,seen_extra,,,,,,green-04-1.979--1,green-04-1.979--1.png,-1,c:green|s:thin|r:round,unseen_extra,1,0.40669412475607647,green-08-1.367-+1.png,c:green|s:neutral|r:neutral,color,right,green-04-1.979--1,green-04-1.979--1.png,-1,c:green|s:thin|r:round,unseen_extra,1,0.40669412475607647,green-03-1.008-+3,green-03-1.008-+3.png,3,c:green|s:thin|r:neutral,seen_extra,,,0,,,data_55bb9ae7fdf99b26d27fda01.csv,1028,,,,,,,,,,,,memory,value_judgment,55bb9ae7fdf99b26d27fda01,thin,neutral,3,1.008,29,thin,round,4,1.979,30,thin,round,4,1.979,30,thin,neutral,3,1.008,29,neutral,neutral,,,,right,30,thin,round,stem=thin|cap=round,55bb9ae7fdf99b26d27fda01|30,1,3,far,zero_classifier,true,c:green|s:thin|r:neutral,c:green|s:thin|r:round,green-03-1.008-+3.png,green-04-1.979--1.png,seen_extra,unseen_extra,unseen_extra,seen_extra,,1,1,,,1,3,far,within_color,seen_vs_unseen
55bb9ae7fdf99b26d27fda01,31,memory_choice,2382983.199999988,,699.5999999940395,1,magenta,within_color_close,c:magenta|s:thick|r:flat,c:magenta|s:neutral|r:neutral,close,1,abs(abs(v-line)_diff),2,4,zero_classifier,0,true,2,2,left,left,magenta-10-1.068--3,magenta-10-1.068--3.png,-3,c:magenta|s:neutral|r:neutral,unseen_extra,2,0.16667866623469774,magenta-09-1.070--4.png,c:magenta|s:neutral|r:neutral,type,magenta-14-0.595-+1,magenta-14-0.595-+1.png,1,c:magenta|s:thick|r:flat,seen_extra,,,,,,right,magenta-14-0.595-+1,magenta-14-0.595-+1.png,1,c:magenta|s:thick|r:flat,seen_extra,,,magenta-10-1.068--3,magenta-10-1.068--3.png,-3,c:magenta|s:neutral|r:neutral,unseen_extra,2,0.16667866623469774,1,,,data_55bb9ae7fdf99b26d27fda01.csv,1029,,,,,,,,,,,,memory,value_judgment,55bb9ae7fdf99b26d27fda01,neutral,neutral,10,1.068,41,thick,flat,14,0.595,43,thick,flat,14,0.595,43,neutral,neutral,10,1.068,41,neutral,neutral,,,,right,43,thick,flat,stem=thick|cap=flat,55bb9ae7fdf99b26d27fda01|31,2,1,close,zero_classifier,true,c:magenta|s:thick|r:flat,c:magenta|s:neutral|r:neutral,magenta-10-1.068--3.png,magenta-14-0.595-+1.png,unseen_extra,seen_extra,seen_extra,unseen_extra,2,,,2,,2,1,close,within_color,seen_vs_unseen
55bb9ae7fdf99b26d27fda01,32,memory_choice,2384889.5,,831.2999999970198,0,,,,,,,,,,,,,,2,,left,red-14-1.958-+8,red-14-1.958-+8.png,8,c:red|s:thick|r:round,seen,2,0,red-14-1.866-+10.png,c:red|s:thick|r:round,type,black-14-1.058-+5,black-14-1.058-+5.png,5,c:black|s:thick|r:neutral,seen,1,0.4580000000000001,black-14-0.206-+5.png,c:black|s:thick|r:flat,color,right,black-14-1.058-+5,black-14-1.058-+5.png,5,c:black|s:thick|r:neutral,seen,1,0.4580000000000001,red-14-1.958-+8,red-14-1.958-+8.png,8,c:red|s:thick|r:round,seen,2,0,0,1,right,data_55bb9ae7fdf99b26d27fda01.csv,1030,,,,,,,,,,,,memory,value_judgment,55bb9ae7fdf99b26d27fda01,thick,round,14,1.958,54,thick,neutral,14,1.058,8,thick,neutral,14,1.058,8,thick,round,14,1.958,54,neutral,neutral,,,,right,8,thick,neutral,stem=thick|cap=neutral,55bb9ae7fdf99b26d27fda01|32,,,,,,,,red-14-1.958-+8.png,black-14-1.058-+5.png,seen,seen,seen,seen,2,1,1,2,,1,,,cross_color,seen_vs_seen
55bb9ae7fdf99b26d27fda01,33,memory_choice,2386966,,883,0,,,,,,,,,,,,,,2,,left,yellow-08-1.902-+2,yellow-08-1.902-+2.png,2,c:yellow|s:neutral|r:round,seen_fallback,2,0,yellow-08-1.962-+1.png,c:yellow|s:neutral|r:round,type,white-09-1.369--1,white-09-1.369--1.png,-1,c:white|s:neutral|r:neutral,seen,2,0.008999999999999897,white-09-1.378-+1.png,c:white|s:neutral|r:neutral,type,left,yellow-08-1.902-+2,yellow-08-1.902-+2.png,2,c:yellow|s:neutral|r:round,seen_fallback,2,0,white-09-1.369--1,white-09-1.369--1.png,-1,c:white|s:neutral|r:neutral,seen,2,0.008999999999999897,1,2,right,data_55bb9ae7fdf99b26d27fda01.csv,1031,,,,,,,,,,,,memory,value_judgment,55bb9ae7fdf99b26d27fda01,neutral,round,8,1.902,69,neutral,neutral,9,1.369,59,neutral,round,8,1.902,69,neutral,neutral,9,1.369,59,neutral,neutral,,,,left,69,neutral,round,stem=neutral|cap=round,55bb9ae7fdf99b26d27fda01|33,,,,,,,,yellow-08-1.902-+2.png,white-09-1.369--1.png,seen_fallback,seen,seen_fallback,seen,2,2,2,2,,2,,,cross_color,seen_vs_seen
55bb9ae7fdf99b26d27fda01,34,memory_choice,2389142.599999994,,1008.2999999970198,1,cyan,within_color_close,c:cyan|s:thick|r:neutral,c:cyan|s:neutral|r:round,close,1,abs(abs(v-line)_diff),2,4,zero_classifier,0,true,2,2,right,right,cyan-11-1.044--1,cyan-11-1.044--1.png,-1,c:cyan|s:thick|r:neutral,seen_extra,,,,,,cyan-10-1.999-+3,cyan-10-1.999-+3.png,3,c:cyan|s:neutral|r:round,unseen_extra,2,0.16666666666666663,cyan-09-1.612-+2.png,c:cyan|s:neutral|r:round,type,left,cyan-11-1.044--1,cyan-11-1.044--1.png,-1,c:cyan|s:thick|r:neutral,seen_extra,,,cyan-10-1.999-+3,cyan-10-1.999-+3.png,3,c:cyan|s:neutral|r:round,unseen_extra,2,0.16666666666666663,0,,,data_55bb9ae7fdf99b26d27fda01.csv,1032,,,,,,,,,,,,memory,value_judgment,55bb9ae7fdf99b26d27fda01,thick,neutral,11,1.044,26,neutral,round,10,1.999,24,thick,neutral,11,1.044,26,neutral,round,10,1.999,24,neutral,neutral,,,,left,26,thick,neutral,stem=thick|cap=neutral,55bb9ae7fdf99b26d27fda01|34,2,1,close,zero_classifier,true,c:cyan|s:thick|r:neutral,c:cyan|s:neutral|r:round,cyan-11-1.044--1.png,cyan-10-1.999-+3.png,seen_extra,unseen_extra,seen_extra,unseen_extra,,2,,2,,2,1,close,within_color,seen_vs_unseen
55bb9ae7fdf99b26d27fda01,35,memory_choice,2390987.199999988,,662,0,,,,,,,,,,,,,1,1,left,left,green-13-1.957--2,green-13-1.957--2.png,-2,c:green|s:thick|r:round,seen_fallback,1,0.35725869867335314,green-11-1.284--1.png,c:green|s:thick|r:neutral,color,red-08-1.336-+4,red-08-1.336-+4.png,4,c:red|s:neutral|r:neutral,seen_fallback,,,,,,right,red-08-1.336-+4,red-08-1.336-+4.png,4,c:red|s:neutral|r:neutral,seen_fallback,,,green-13-1.957--2,green-13-1.957--2.png,-2,c:green|s:thick|r:round,seen_fallback,1,0.35725869867335314,1,,,data_55bb9ae7fdf99b26d27fda01.csv,1033,,,,,,,,,,,,memory,value_judgment,55bb9ae7fdf99b26d27fda01,thick,round,13,1.957,36,neutral,neutral,8,1.336,50,neutral,neutral,8,1.336,50,thick,round,13,1.957,36,neutral,neutral,,,,right,50,neutral,neutral,stem=neutral|cap=neutral,55bb9ae7fdf99b26d27fda01|35,1,,,,,,,green-13-1.957--2.png,red-08-1.336-+4.png,seen_fallback,seen_fallback,seen_fallback,seen_fallback,1,,,1,,1,,,cross_color,seen_vs_seen
55bb9ae7fdf99b26d27fda01,36,memory_choice,2393046,,907.5999999940395,1,green,within_color_middle,c:green|s:thick|r:flat,c:green|s:neutral|r:round,middle,2,abs(abs(v-line)_diff),2,4,zero_classifier,0,true,1,1,left,left,green-06-1.918--1,green-06-1.918--1.png,-1,c:green|s:neutral|r:round,unseen_extra,1,0.40669412475607647,green-08-1.367-+1.png,c:green|s:neutral|r:neutral,color,green-12-0.207-+3,green-12-0.207-+3.png,3,c:green|s:thick|r:flat,seen_extra,,,,,,right,green-12-0.207-+3,green-12-0.207-+3.png,3,c:green|s:thick|r:flat,seen_extra,,,green-06-1.918--1,green-06-1.918--1.png,-1,c:green|s:neutral|r:round,unseen_extra,1,0.40669412475607647,1,,,data_55bb9ae7fdf99b26d27fda01.csv,1034,,,,,,,,,,,,memory,value_judgment,55bb9ae7fdf99b26d27fda01,neutral,round,6,1.918,33,thick,flat,12,0.207,34,thick,flat,12,0.207,34,neutral,round,6,1.918,33,neutral,neutral,,,,right,34,thick,flat,stem=thick|cap=flat,55bb9ae7fdf99b26d27fda01|36,1,2,middle,zero_classifier,true,c:green|s:thick|r:flat,c:green|s:neutral|r:round,green-06-1.918--1.png,green-12-0.207-+3.png,unseen_extra,seen_extra,seen_extra,unseen_extra,1,,,1,,1,2,middle,within_color,seen_vs_unseen
55bb9ae7fdf99b26d27fda01,37,memory_choice,2395303.699999988,,1195.6000000089407,1,yellow,within_color_middle,c:yellow|s:thin|r:neutral,c:yellow|s:neutral|r:neutral,middle,2,abs(abs(v-line)_diff),1,7,zero_classifier,0,true,2,2,left,left,yellow-07-1.037--4,yellow-07-1.037--4.png,-4,c:yellow|s:neutral|r:neutral,unseen_extra,2,0.16702927221830843,yellow-08-1.048--2.png,c:yellow|s:neutral|r:neutral,type,yellow-04-0.975-+3,yellow-04-0.975-+3.png,3,c:yellow|s:thin|r:neutral,seen_extra,,,,,,left,yellow-07-1.037--4,yellow-07-1.037--4.png,-4,c:yellow|s:neutral|r:neutral,unseen_extra,2,0.16702927221830843,yellow-04-0.975-+3,yellow-04-0.975-+3.png,3,c:yellow|s:thin|r:neutral,seen_extra,,,0,,,data_55bb9ae7fdf99b26d27fda01.csv,1035,,,,,,,,,,,,memory,value_judgment,55bb9ae7fdf99b26d27fda01,neutral,neutral,7,1.037,68,thin,neutral,4,0.975,65,neutral,neutral,7,1.037,68,thin,neutral,4,0.975,65,neutral,neutral,,,,left,68,neutral,neutral,stem=neutral|cap=neutral,55bb9ae7fdf99b26d27fda01|37,2,2,middle,zero_classifier,true,c:yellow|s:thin|r:neutral,c:yellow|s:neutral|r:neutral,yellow-07-1.037--4.png,yellow-04-0.975-+3.png,unseen_extra,seen_extra,unseen_extra,seen_extra,2,,2,,,2,2,middle,within_color,seen_vs_unseen
55bb9ae7fdf99b26d27fda01,38,memory_choice,2397409.899999991,,1019.6999999880791,0,,,,,,,,,,,,,,2,,left,yellow-03-0.807--1,yellow-03-0.807--1.png,-1,c:yellow|s:thin|r:neutral,seen_fallback,2,0.11199999999999999,yellow-03-0.919-+3.png,c:yellow|s:thin|r:neutral,type,white-03-1.047--1,white-03-1.047--1.png,-1,c:white|s:thin|r:neutral,seen,2,0.0050000000000001155,white-03-1.052--1.png,c:white|s:thin|r:neutral,type,left,yellow-03-0.807--1,yellow-03-0.807--1.png,-1,c:yellow|s:thin|r:neutral,seen_fallback,2,0.11199999999999999,white-03-1.047--1,white-03-1.047--1.png,-1,c:white|s:thin|r:neutral,seen,2,0.0050000000000001155,,2,right,data_55bb9ae7fdf99b26d27fda01.csv,1036,,,,,,,,,,,,memory,value_judgment,55bb9ae7fdf99b26d27fda01,thin,neutral,3,0.807,65,thin,neutral,3,1.047,56,thin,neutral,3,0.807,65,thin,neutral,3,1.047,56,neutral,neutral,,,,left,65,thin,neutral,stem=thin|cap=neutral,55bb9ae7fdf99b26d27fda01|38,,,,,,,,yellow-03-0.807--1.png,white-03-1.047--1.png,seen_fallback,seen,seen_fallback,seen,2,2,2,2,,2,,,cross_color,seen_vs_seen
55bb9ae7fdf99b26d27fda01,39,memory_choice,2399155.899999991,,678.5999999940395,0,,,,,,,,,,,,,,,,,blue-07-0.210-+3,blue-07-0.210-+3.png,3,c:blue|s:neutral|r:flat,seen_fallback,,,,,,blue-13-0.469-+3,blue-13-0.469-+3.png,3,c:blue|s:thick|r:flat,seen_fallback,,,,,,right,blue-13-0.469-+3,blue-13-0.469-+3.png,3,c:blue|s:thick|r:flat,seen_fallback,,,blue-07-0.210-+3,blue-07-0.210-+3.png,3,c:blue|s:neutral|r:flat,seen_fallback,,,,,,data_55bb9ae7fdf99b26d27fda01.csv,1037,,,,,,,,,,,,memory,value_judgment,55bb9ae7fdf99b26d27fda01,neutral,flat,7,0.21,13,thick,flat,13,0.469,16,thick,flat,13,0.469,16,neutral,flat,7,0.21,13,neutral,neutral,,,,right,16,thick,flat,stem=thick|cap=flat,55bb9ae7fdf99b26d27fda01|39,,,,,,,,blue-07-0.210-+3.png,blue-13-0.469-+3.png,seen_fallback,seen_fallback,seen_fallback,seen_fallback,,,,,,,,,within_color,seen_vs_seen
55bb9ae7fdf99b26d27fda01,40,memory_choice,2401002.199999988,,769.7000000029802,0,,,,,,,,,,,,,,2,,left,yellow-11-0.902-+1,yellow-11-0.902-+1.png,1,c:yellow|s:thick|r:neutral,seen,2,0.16667866623469774,yellow-14-0.900--2.png,c:yellow|s:thick|r:neutral,type,red-13-0.523-+8,red-13-0.523-+8.png,8,c:red|s:thick|r:flat,seen_fallback,2,0,red-14-0.336-+9.png,c:red|s:thick|r:flat,type,right,red-13-0.523-+8,red-13-0.523-+8.png,8,c:red|s:thick|r:flat,seen_fallback,2,0,yellow-11-0.902-+1,yellow-11-0.902-+1.png,1,c:yellow|s:thick|r:neutral,seen,2,0.16667866623469774,1,2,right,data_55bb9ae7fdf99b26d27fda01.csv,1038,,,,,,,,,,,,memory,value_judgment,55bb9ae7fdf99b26d27fda01,thick,neutral,11,0.902,71,thick,flat,13,0.523,52,thick,flat,13,0.523,52,thick,neutral,11,0.902,71,neutral,neutral,,,,right,52,thick,flat,stem=thick|cap=flat,55bb9ae7fdf99b26d27fda01|40,,,,,,,,yellow-11-0.902-+1.png,red-13-0.523-+8.png,seen,seen_fallback,seen_fallback,seen,2,2,2,2,,2,,,cross_color,seen_vs_seen
55bb9ae7fdf99b26d27fda01,41,memory_choice,2409773,,7702,1,blue,within_color_far,c:blue|s:thin|r:round,c:blue|s:thin|r:flat,far,3,abs(abs(v-line)_diff),3,9,zero_classifier,0,true,2,2,right,right,blue-03-1.936--6,blue-03-1.936--6.png,-6,c:blue|s:thin|r:round,seen_extra,,,,,,blue-03-0.217-+3,blue-03-0.217-+3.png,3,c:blue|s:thin|r:flat,unseen_extra,2,0,blue-03-0.259-+3.png,c:blue|s:thin|r:flat,type,left,blue-03-1.936--6,blue-03-1.936--6.png,-6,c:blue|s:thin|r:round,seen_extra,,,blue-03-0.217-+3,blue-03-0.217-+3.png,3,c:blue|s:thin|r:flat,unseen_extra,2,0,0,,,data_55bb9ae7fdf99b26d27fda01.csv,1039,,,,,,,,,,,,memory,value_judgment,55bb9ae7fdf99b26d27fda01,thin,round,3,1.936,12,thin,flat,3,0.217,10,thin,round,3,1.936,12,thin,flat,3,0.217,10,neutral,neutral,,,,left,12,thin,round,stem=thin|cap=round,55bb9ae7fdf99b26d27fda01|41,2,3,far,zero_classifier,true,c:blue|s:thin|r:round,c:blue|s:thin|r:flat,blue-03-1.936--6.png,blue-03-0.217-+3.png,seen_extra,unseen_extra,seen_extra,unseen_extra,,2,,2,,2,3,far,within_color,seen_vs_unseen
55bb9ae7fdf99b26d27fda01,42,memory_choice,2412137.199999988,,1283.5,0,,,,,,,,,,,,,,2,,left,green-03-0.711-+3,green-03-0.711-+3.png,3,c:green|s:thin|r:flat,seen_fallback,2,0.11099999999999999,green-06-0.249-+4.png,c:green|s:neutral|r:flat,color,green-09-1.263-+1,green-09-1.263-+1.png,1,c:green|s:neutral|r:neutral,seen,2,0.17289817170166302,green-10-1.217-+1.png,c:green|s:neutral|r:neutral,type,right,green-09-1.263-+1,green-09-1.263-+1.png,1,c:green|s:neutral|r:neutral,seen,2,0.17289817170166302,green-03-0.711-+3,green-03-0.711-+3.png,3,c:green|s:thin|r:flat,seen_fallback,2,0.11099999999999999,0,2,right,data_55bb9ae7fdf99b26d27fda01.csv,1040,,,,,,,,,,,,memory,value_judgment,55bb9ae7fdf99b26d27fda01,thin,flat,3,0.711,28,neutral,neutral,9,1.263,32,neutral,neutral,9,1.263,32,thin,flat,3,0.711,28,neutral,neutral,,,,right,32,neutral,neutral,stem=neutral|cap=neutral,55bb9ae7fdf99b26d27fda01|42,,,,,,,,green-03-0.711-+3.png,green-09-1.263-+1.png,seen_fallback,seen,seen,seen_fallback,2,2,2,2,,2,,,within_color,seen_vs_seen
55bb9ae7fdf99b26d27fda01,43,memory_choice,2413888.399999991,,674.7000000029802,0,,,,,,,,,,,,,,2,,left,red-04-1.977-+1,red-04-1.977-+1.png,1,c:red|s:thin|r:round,seen_fallback,2,0,red-03-1.854-+1.png,c:red|s:thin|r:round,type,magenta-03-1.200--6,magenta-03-1.200--6.png,-6,c:magenta|s:thin|r:neutral,unseen,2,0.04200000000000004,magenta-06-1.158--4.png,c:magenta|s:neutral|r:neutral,color,left,red-04-1.977-+1,red-04-1.977-+1.png,1,c:red|s:thin|r:round,seen_fallback,2,0,magenta-03-1.200--6,magenta-03-1.200--6.png,-6,c:magenta|s:thin|r:neutral,unseen,2,0.04200000000000004,1,2,right,data_55bb9ae7fdf99b26d27fda01.csv,1041,,,,,,,,,,,,memory,value_judgment,55bb9ae7fdf99b26d27fda01,thin,round,4,1.977,48,thin,neutral,3,1.2,38,thin,round,4,1.977,48,thin,neutral,3,1.2,38,neutral,neutral,,,,left,48,thin,round,stem=thin|cap=round,55bb9ae7fdf99b26d27fda01|43,,,,,,,,red-04-1.977-+1.png,magenta-03-1.200--6.png,seen_fallback,unseen,seen_fallback,unseen,2,2,2,2,,2,,,cross_color,seen_vs_unseen
55bb9ae7fdf99b26d27fda01,44,memory_choice,2415383.599999994,,428.09999999403954,0,,,,,,,,,,,,,,2,,left,blue-13-1.089-+4,blue-13-1.089-+4.png,4,c:blue|s:thick|r:neutral,seen_fallback,2,0.008999999999999897,blue-12-1.080-+2.png,c:blue|s:thick|r:neutral,type,yellow-11-0.251--2,yellow-11-0.251--2.png,-2,c:yellow|s:thick|r:flat,seen,2,0,yellow-11-0.344--3.png,c:yellow|s:thick|r:flat,type,right,yellow-11-0.251--2,yellow-11-0.251--2.png,-2,c:yellow|s:thick|r:flat,seen,2,0,blue-13-1.089-+4,blue-13-1.089-+4.png,4,c:blue|s:thick|r:neutral,seen_fallback,2,0.008999999999999897,0,2,right,data_55bb9ae7fdf99b26d27fda01.csv,1042,,,,,,,,,,,,memory,value_judgment,55bb9ae7fdf99b26d27fda01,thick,neutral,13,1.089,17,thick,flat,11,0.251,70,thick,flat,11,0.251,70,thick,neutral,13,1.089,17,neutral,neutral,,,,right,70,thick,flat,stem=thick|cap=flat,55bb9ae7fdf99b26d27fda01|44,,,,,,,,blue-13-1.089-+4.png,yellow-11-0.251--2.png,seen_fallback,seen,seen,seen_fallback,2,2,2,2,,2,,,cross_color,seen_vs_seen
55bb9ae7fdf99b26d27fda01,45,memory_choice,2416975.599999994,,505,1,magenta,within_color_middle,c:magenta|s:thick|r:flat,c:magenta|s:neutral|r:neutral,middle,2,abs(abs(v-line)_diff),3,5,zero_classifier,0,true,2,2,left,left,magenta-06-1.081--4,magenta-06-1.081--4.png,-4,c:magenta|s:neutral|r:neutral,unseen_extra,2,0.07699999999999996,magenta-06-1.158--4.png,c:magenta|s:neutral|r:neutral,type,magenta-11-0.504-+1,magenta-11-0.504-+1.png,1,c:magenta|s:thick|r:flat,seen_extra,,,,,,right,magenta-11-0.504-+1,magenta-11-0.504-+1.png,1,c:magenta|s:thick|r:flat,seen_extra,,,magenta-06-1.081--4,magenta-06-1.081--4.png,-4,c:magenta|s:neutral|r:neutral,unseen_extra,2,0.07699999999999996,1,,,data_55bb9ae7fdf99b26d27fda01.csv,1043,,,,,,,,,,,,memory,value_judgment,55bb9ae7fdf99b26d27fda01,neutral,neutral,6,1.081,41,thick,flat,11,0.504,43,thick,flat,11,0.504,43,neutral,neutral,6,1.081,41,neutral,neutral,,,,right,43,thick,flat,stem=thick|cap=flat,55bb9ae7fdf99b26d27fda01|45,2,2,middle,zero_classifier,true,c:magenta|s:thick|r:flat,c:magenta|s:neutral|r:neutral,magenta-06-1.081--4.png,magenta-11-0.504-+1.png,unseen_extra,seen_extra,seen_extra,unseen_extra,2,,,2,,2,2,middle,within_color,seen_vs_unseen
55bb9ae7fdf99b26d27fda01,46,memory_choice,2418560.399999991,,513.7000000029802,0,,,,,,,,,,,,,,2,,left,yellow-14-2.000-+1,yellow-14-2.000-+1.png,1,c:yellow|s:thick|r:round,seen,2,0,yellow-14-1.985-+1.png,c:yellow|s:thick|r:round,type,black-03-0.377--1,black-03-0.377--1.png,-1,c:black|s:thin|r:flat,seen_fallback,2,0,black-03-0.210--1.png,c:black|s:thin|r:flat,type,left,yellow-14-2.000-+1,yellow-14-2.000-+1.png,1,c:yellow|s:thick|r:round,seen,2,0,black-03-0.377--1,black-03-0.377--1.png,-1,c:black|s:thin|r:flat,seen_fallback,2,0,1,2,right,data_55bb9ae7fdf99b26d27fda01.csv,1044,,,,,,,,,,,,memory,value_judgment,55bb9ae7fdf99b26d27fda01,thick,round,14,2.0,72,thin,flat,3,0.377,1,thick,round,14,2.0,72,thin,flat,3,0.377,1,neutral,neutral,,,,left,72,thick,round,stem=thick|cap=round,55bb9ae7fdf99b26d27fda01|46,,,,,,,,yellow-14-2.000-+1.png,black-03-0.377--1.png,seen,seen_fallback,seen,seen_fallback,2,2,2,2,,2,,,cross_color,seen_vs_seen
55bb9ae7fdf99b26d27fda01,47,memory_choice,2420586.899999991,,950.7000000029802,1,magenta,within_color_far,c:magenta|s:thick|r:flat,c:magenta|s:thin|r:round,far,3,abs(abs(v-line)_diff),4,6,zero_classifier,0,true,2,2,left,left,magenta-05-1.641--5,magenta-05-1.641--5.png,-5,c:magenta|s:thin|r:round,unseen_extra,2,0,magenta-05-2.000--6.png,c:magenta|s:thin|r:round,type,magenta-14-0.395-+1,magenta-14-0.395-+1.png,1,c:magenta|s:thick|r:flat,seen_extra,,,,,,left,magenta-05-1.641--5,magenta-05-1.641--5.png,-5,c:magenta|s:thin|r:round,unseen_extra,2,0,magenta-14-0.395-+1,magenta-14-0.395-+1.png,1,c:magenta|s:thick|r:flat,seen_extra,,,0,,,data_55bb9ae7fdf99b26d27fda01.csv,1045,,,,,,,,,,,,memory,value_judgment,55bb9ae7fdf99b26d27fda01,thin,round,5,1.641,39,thick,flat,14,0.395,43,thin,round,5,1.641,39,thick,flat,14,0.395,43,neutral,neutral,,,,left,39,thin,round,stem=thin|cap=round,55bb9ae7fdf99b26d27fda01|47,2,3,far,zero_classifier,true,c:magenta|s:thick|r:flat,c:magenta|s:thin|r:round,magenta-05-1.641--5.png,magenta-14-0.395-+1.png,unseen_extra,seen_extra,unseen_extra,seen_extra,2,,2,,,2,3,far,within_color,seen_vs_unseen
55bb9ae7fdf99b26d27fda01,48,memory_choice,2422550.799999997,,762.7999999970198,1,white,within_color_middle,c:white|s:thin|r:round,c:white|s:thick|r:flat,middle,2,abs(abs(v-line)_diff),2,4,zero_classifier,0,true,2,2,left,left,white-13-0.211-+1,white-13-0.211-+1.png,1,c:white|s:thick|r:flat,unseen_extra,2,0,white-14-0.225-+3.png,c:white|s:thick|r:flat,type,white-03-1.928--3,white-03-1.928--3.png,-3,c:white|s:thin|r:round,seen_extra,,,,,,right,white-03-1.928--3,white-03-1.928--3.png,-3,c:white|s:thin|r:round,seen_extra,,,white-13-0.211-+1,white-13-0.211-+1.png,1,c:white|s:thick|r:flat,unseen_extra,2,0,0,,,data_55bb9ae7fdf99b26d27fda01.csv,1046,,,,,,,,,,,,memory,value_judgment,55bb9ae7fdf99b26d27fda01,thick,flat,13,0.211,61,thin,round,3,1.928,57,thin,round,3,1.928,57,thick,flat,13,0.211,61,neutral,neutral,,,,right,57,thin,round,stem=thin|cap=round,55bb9ae7fdf99b26d27fda01|48,2,2,middle,zero_classifier,true,c:white|s:thin|r:round,c:white|s:thick|r:flat,white-13-0.211-+1.png,white-03-1.928--3.png,unseen_extra,seen_extra,seen_extra,unseen_extra,2,,,2,,2,2,middle,within_color,seen_vs_unseen
55bb9ae7fdf99b26d27fda01,49,memory_choice,2427910.299999997,,4172.899999991059,0,,,,,,,,,,,,,,,,,black-07-2.000-+2,black-07-2.000-+2.png,2,c:black|s:neutral|r:round,seen,,,,,,red-03-0.276-+1,red-03-0.276-+1.png,1,c:red|s:thin|r:flat,seen_fallback,,,,,,left,black-07-2.000-+2,black-07-2.000-+2.png,2,c:black|s:neutral|r:round,seen,,,red-03-0.276-+1,red-03-0.276-+1.png,1,c:red|s:thin|r:flat,seen_fallback,,,1,,,data_55bb9ae7fdf99b26d27fda01.csv,1047,,,,,,,,,,,,memory,value_judgment,55bb9ae7fdf99b26d27fda01,neutral,round,7,2.0,6,thin,flat,3,0.276,46,neutral,round,7,2.0,6,thin,flat,3,0.276,46,neutral,neutral,,,,left,6,neutral,round,stem=neutral|cap=round,55bb9ae7fdf99b26d27fda01|49,,,,,,,,black-07-2.000-+2.png,red-03-0.276-+1.png,seen,seen_fallback,seen,seen_fallback,,,,,,,,,cross_color,seen_vs_seen
55bb9ae7fdf99b26d27fda01,50,memory_choice,2430234.5,,1250.8999999910593,0,,,,,,,,,,,,,,2,,left,magenta-10-0.967--4,magenta-10-0.967--4.png,-4,c:magenta|s:neutral|r:neutral,seen_fallback,2,0.19592543933286913,magenta-09-1.070--4.png,c:magenta|s:neutral|r:neutral,type,cyan-06-1.085-+3,cyan-06-1.085-+3.png,3,c:cyan|s:neutral|r:neutral,seen,2,0.08000000000000007,cyan-06-1.165-+3.png,c:cyan|s:neutral|r:neutral,type,left,magenta-10-0.967--4,magenta-10-0.967--4.png,-4,c:magenta|s:neutral|r:neutral,seen_fallback,2,0.19592543933286913,cyan-06-1.085-+3,cyan-06-1.085-+3.png,3,c:cyan|s:neutral|r:neutral,seen,2,0.08000000000000007,0,2,right,data_55bb9ae7fdf99b26d27fda01.csv,1048,,,,,,,,,,,,memory,value_judgment,55bb9ae7fdf99b26d27fda01,neutral,neutral,10,0.967,41,neutral,neutral,6,1.085,23,neutral,neutral,10,0.967,41,neutral,neutral,6,1.085,23,neutral,neutral,,,,left,41,neutral,neutral,stem=neutral|cap=neutral,55bb9ae7fdf99b26d27fda01|50,,,,,,,,magenta-10-0.967--4.png,cyan-06-1.085-+3.png,seen_fallback,seen,seen_fallback,seen,2,2,2,2,,2,,,cross_color,seen_vs_seen
55bb9ae7fdf99b26d27fda01,51,memory_choice,2431730.5,,421.1000000089407,1,blue,within_color_middle,c:blue|s:thin|r:round,c:blue|s:thick|r:neutral,middle,2,abs(abs(v-line)_diff),2,4,zero_classifier,0,true,2,2,left,left,blue-13-0.990-+1,blue-13-0.990-+1.png,1,c:blue|s:thick|r:neutral,unseen_extra,2,0.016999999999999904,blue-12-1.007-+2.png,c:blue|s:thick|r:neutral,type,blue-04-1.985--3,blue-04-1.985--3.png,-3,c:blue|s:thin|r:round,seen_extra,,,,,,right,blue-04-1.985--3,blue-04-1.985--3.png,-3,c:blue|s:thin|r:round,seen_extra,,,blue-13-0.990-+1,blue-13-0.990-+1.png,1,c:blue|s:thick|r:neutral,unseen_extra,2,0.016999999999999904,0,,,data_55bb9ae7fdf99b26d27fda01.csv,1049,,,,,,,,,,,,memory,value_judgment,55bb9ae7fdf99b26d27fda01,thick,neutral,13,0.99,17,thin,round,4,1.985,12,thin,round,4,1.985,12,thick,neutral,13,0.99,17,neutral,neutral,,,,right,12,thin,round,stem=thin|cap=round,55bb9ae7fdf99b26d27fda01|51,2,2,middle,zero_classifier,true,c:blue|s:thin|r:round,c:blue|s:thick|r:neutral,blue-13-0.990-+1.png,blue-04-1.985--3.png,unseen_extra,seen_extra,seen_extra,unseen_extra,2,,,2,,2,2,middle,within_color,seen_vs_unseen
55bb9ae7fdf99b26d27fda01,52,memory_choice,2433548.599999994,,745.2000000029802,1,red,within_color_close,c:red|s:neutral|r:neutral,c:red|s:neutral|r:neutral,close,1,abs(abs(v-line)_diff),1,1,range_middle,5.5,false,2,2,left,left,red-09-0.980-+5,red-09-0.980-+5.png,5,c:red|s:neutral|r:neutral,unseen_extra,2,0.1060000000000001,red-09-1.086-+6.png,c:red|s:neutral|r:neutral,type,red-08-1.336-+4,red-08-1.336-+4.png,4,c:red|s:neutral|r:neutral,seen_extra,,,,,,right,red-08-1.336-+4,red-08-1.336-+4.png,4,c:red|s:neutral|r:neutral,seen_extra,,,red-09-0.980-+5,red-09-0.980-+5.png,5,c:red|s:neutral|r:neutral,unseen_extra,2,0.1060000000000001,0,,,data_55bb9ae7fdf99b26d27fda01.csv,1050,,,,,,,,,,,,memory,value_judgment,55bb9ae7fdf99b26d27fda01,neutral,neutral,9,0.98,50,neutral,neutral,8,1.336,50,neutral,neutral,8,1.336,50,neutral,neutral,9,0.98,50,neutral,neutral,,,,right,50,neutral,neutral,stem=neutral|cap=neutral,55bb9ae7fdf99b26d27fda01|52,2,1,close,range_middle,false,c:red|s:neutral|r:neutral,c:red|s:neutral|r:neutral,red-09-0.980-+5.png,red-08-1.336-+4.png,unseen_extra,seen_extra,seen_extra,unseen_extra,2,,,2,,2,1,close,within_color,seen_vs_unseen
55bb9ae7fdf99b26d27fda01,53,memory_choice,2435332.399999991,,707.2000000029802,0,,,,,,,,,,,,,,1,,left,green-06-1.660--1,green-06-1.660--1.png,-1,c:green|s:neutral|r:round,seen,1,0.40669412475607647,green-08-1.367-+1.png,c:green|s:neutral|r:neutral,color,cyan-05-0.200-+8,cyan-05-0.200-+8.png,8,c:cyan|s:thin|r:flat,seen_fallback,2,0,cyan-04-0.315-+7.png,c:cyan|s:thin|r:flat,type,left,green-06-1.660--1,green-06-1.660--1.png,-1,c:green|s:neutral|r:round,seen,1,0.40669412475607647,cyan-05-0.200-+8,cyan-05-0.200-+8.png,8,c:cyan|s:thin|r:flat,seen_fallback,2,0,0,2,right,data_55bb9ae7fdf99b26d27fda01.csv,1051,,,,,,,,,,,,memory,value_judgment,55bb9ae7fdf99b26d27fda01,neutral,round,6,1.66,33,thin,flat,5,0.2,19,neutral,round,6,1.66,33,thin,flat,5,0.2,19,neutral,neutral,,,,left,33,neutral,round,stem=neutral|cap=round,55bb9ae7fdf99b26d27fda01|53,,,,,,,,green-06-1.660--1.png,cyan-05-0.200-+8.png,seen,seen_fallback,seen,seen_fallback,1,2,1,2,,1,,,cross_color,seen_vs_seen
55bb9ae7fdf99b26d27fda01,54,memory_choice,2437464.5,,1064.300000011921,1,green,within_color_close,c:green|s:neutral|r:neutral,c:green|s:thin|r:round,close,1,abs(abs(v-line)_diff),1,3,zero_classifier,0,true,1,1,right,right,green-07-0.928-+1,green-07-0.928-+1.png,1,c:green|s:neutral|r:neutral,seen_extra,,,,,,green-03-1.970--2,green-03-1.970--2.png,-2,c:green|s:thin|r:round,unseen_extra,1,0.40669412475607647,green-08-1.367-+1.png,c:green|s:neutral|r:neutral,color,right,green-03-1.970--2,green-03-1.970--2.png,-2,c:green|s:thin|r:round,unseen_extra,1,0.40669412475607647,green-07-0.928-+1,green-07-0.928-+1.png,1,c:green|s:neutral|r:neutral,seen_extra,,,0,,,data_55bb9ae7fdf99b26d27fda01.csv,1052,,,,,,,,,,,,memory,value_judgment,55bb9ae7fdf99b26d27fda01,neutral,neutral,7,0.928,32,thin,round,3,1.97,30,thin,round,3,1.97,30,neutral,neutral,7,0.928,32,neutral,neutral,,,,right,30,thin,round,stem=thin|cap=round,55bb9ae7fdf99b26d27fda01|54,1,1,close,zero_classifier,true,c:green|s:neutral|r:neutral,c:green|s:thin|r:round,green-07-0.928-+1.png,green-03-1.970--2.png,seen_extra,unseen_extra,unseen_extra,seen_extra,,1,1,,,1,1,close,within_color,seen_vs_unseen
55bb9ae7fdf99b26d27fda01,55,memory_choice,2439295,,751.0999999940395,1,yellow,within_color_close,c:yellow|s:thin|r:flat,c:yellow|s:thick|r:round,close,1,abs(abs(v-line)_diff),1,3,zero_classifier,0,true,2,2,right,right,yellow-03-0.340--1,yellow-03-0.340--1.png,-1,c:yellow|s:thin|r:flat,seen_extra,,,,,,yellow-14-1.999-+2,yellow-14-1.999-+2.png,2,c:yellow|s:thick|r:round,unseen_extra,2,0,yellow-14-1.985-+1.png,c:yellow|s:thick|r:round,type,left,yellow-03-0.340--1,yellow-03-0.340--1.png,-1,c:yellow|s:thin|r:flat,seen_extra,,,yellow-14-1.999-+2,yellow-14-1.999-+2.png,2,c:yellow|s:thick|r:round,unseen_extra,2,0,0,,,data_55bb9ae7fdf99b26d27fda01.csv,1053,,,,,,,,,,,,memory,value_judgment,55bb9ae7fdf99b26d27fda01,thin,flat,3,0.34,64,thick,round,14,1.999,72,thin,flat,3,0.34,64,thick,round,14,1.999,72,neutral,neutral,,,,left,64,thin,flat,stem=thin|cap=flat,55bb9ae7fdf99b26d27fda01|55,2,1,close,zero_classifier,true,c:yellow|s:thin|r:flat,c:yellow|s:thick|r:round,yellow-03-0.340--1.png,yellow-14-1.999-+2.png,seen_extra,unseen_extra,seen_extra,unseen_extra,,2,,2,,2,1,close,within_color,seen_vs_unseen
55bb9ae7fdf99b26d27fda01,56,memory_choice,2441018.5,,653.5,0,,,,,,,,,,,,,,,,,blue-04-0.964--4,blue-04-0.964--4.png,-4,c:blue|s:thin|r:neutral,seen,,,,,,white-10-0.206-+3,white-10-0.206-+3.png,3,c:white|s:neutral|r:flat,seen,,,,,,left,blue-04-0.964--4,blue-04-0.964--4.png,-4,c:blue|s:thin|r:neutral,seen,,,white-10-0.206-+3,white-10-0.206-+3.png,3,c:white|s:neutral|r:flat,seen,,,0,,,data_55bb9ae7fdf99b26d27fda01.csv,1054,,,,,,,,,,,,memory,value_judgment,55bb9ae7fdf99b26d27fda01,thin,neutral,4,0.964,11,neutral,flat,10,0.206,58,thin,neutral,4,0.964,11,neutral,flat,10,0.206,58,neutral,neutral,,,,left,11,thin,neutral,stem=thin|cap=neutral,55bb9ae7fdf99b26d27fda01|56,,,,,,,,blue-04-0.964--4.png,white-10-0.206-+3.png,seen,seen,seen,seen,,,,,,,,,cross_color,seen_vs_seen
55bb9ae7fdf99b26d27fda01,57,memory_choice,2442802.399999991,,709.6000000089407,0,,,,,,,,,,,,,,2,,left,cyan-04-0.967-+6,cyan-04-0.967-+6.png,6,c:cyan|s:thin|r:neutral,seen_fallback,2,0.05399999999999994,cyan-04-1.021-+7.png,c:cyan|s:thin|r:neutral,type,white-05-2.000--2,white-05-2.000--2.png,-2,c:white|s:thin|r:round,seen,2,0,white-03-1.928--3.png,c:white|s:thin|r:round,type,left,cyan-04-0.967-+6,cyan-04-0.967-+6.png,6,c:cyan|s:thin|r:neutral,seen_fallback,2,0.05399999999999994,white-05-2.000--2,white-05-2.000--2.png,-2,c:white|s:thin|r:round,seen,2,0,1,2,right,data_55bb9ae7fdf99b26d27fda01.csv,1055,,,,,,,,,,,,memory,value_judgment,55bb9ae7fdf99b26d27fda01,thin,neutral,4,0.967,20,thin,round,5,2.0,57,thin,neutral,4,0.967,20,thin,round,5,2.0,57,neutral,neutral,,,,left,20,thin,neutral,stem=thin|cap=neutral,55bb9ae7fdf99b26d27fda01|57,,,,,,,,cyan-04-0.967-+6.png,white-05-2.000--2.png,seen_fallback,seen,seen_fallback,seen,2,2,2,2,,2,,,cross_color,seen_vs_seen
55bb9ae7fdf99b26d27fda01,58,memory_choice,2444676.699999988,,783.4000000059605,1,blue,within_color_close,c:blue|s:thick|r:neutral,c:blue|s:neutral|r:neutral,close,1,abs(abs(v-line)_diff),1,3,zero_classifier,0,true,2,2,left,left,blue-07-1.285--2,blue-07-1.285--2.png,-2,c:blue|s:neutral|r:neutral,unseen_extra,2,0.15599999999999992,blue-07-1.129-+1.png,c:blue|s:neutral|r:neutral,type,blue-14-0.969-+1,blue-14-0.969-+1.png,1,c:blue|s:thick|r:neutral,seen_extra,,,,,,right,blue-14-0.969-+1,blue-14-0.969-+1.png,1,c:blue|s:thick|r:neutral,seen_extra,,,blue-07-1.285--2,blue-07-1.285--2.png,-2,c:blue|s:neutral|r:neutral,unseen_extra,2,0.15599999999999992,1,,,data_55bb9ae7fdf99b26d27fda01.csv,1056,,,,,,,,,,,,memory,value_judgment,55bb9ae7fdf99b26d27fda01,neutral,neutral,7,1.285,14,thick,neutral,14,0.969,17,thick,neutral,14,0.969,17,neutral,neutral,7,1.285,14,neutral,neutral,,,,right,17,thick,neutral,stem=thick|cap=neutral,55bb9ae7fdf99b26d27fda01|58,2,1,close,zero_classifier,true,c:blue|s:thick|r:neutral,c:blue|s:neutral|r:neutral,blue-07-1.285--2.png,blue-14-0.969-+1.png,unseen_extra,seen_extra,seen_extra,unseen_extra,2,,,2,,2,1,close,within_color,seen_vs_unseen
55bb9ae7fdf99b26d27fda01,59,memory_choice,2446372.199999988,,635.0999999940395,0,,,,,,,,,,,,,2,2,right,right,green-04-1.076-+3,green-04-1.076-+3.png,3,c:green|s:thin|r:neutral,seen,,,,,,magenta-12-1.058--2,magenta-12-1.058--2.png,-2,c:magenta|s:thick|r:neutral,seen,2,0.038999999999999924,magenta-14-1.097--1.png,c:magenta|s:thick|r:neutral,type,right,magenta-12-1.058--2,magenta-12-1.058--2.png,-2,c:magenta|s:thick|r:neutral,seen,2,0.038999999999999924,green-04-1.076-+3,green-04-1.076-+3.png,3,c:green|s:thin|r:neutral,seen,,,0,,,data_55bb9ae7fdf99b26d27fda01.csv,1057,,,,,,,,,,,,memory,value_judgment,55bb9ae7fdf99b26d27fda01,thin,neutral,4,1.076,29,thick,neutral,12,1.058,44,thick,neutral,12,1.058,44,thin,neutral,4,1.076,29,neutral,neutral,,,,right,44,thick,neutral,stem=thick|cap=neutral,55bb9ae7fdf99b26d27fda01|59,2,,,,,,,green-04-1.076-+3.png,magenta-12-1.058--2.png,seen,seen,seen,seen,,2,2,,,2,,,cross_color,seen_vs_seen
56514c84715ff50011a43878,0,memory_choice,4354863.399999999,,1578.1000000014901,0,,,,,,,,,,,,,,,,,white-09-1.311-+1,white-09-1.311-+1.png,1,c:white|s:neutral|r:neutral,seen_fallback,,,,,,blue-04-1.085--3,blue-04-1.085--3.png,-3,c:blue|s:thin|r:neutral,seen,,,,,,left,white-09-1.311-+1,white-09-1.311-+1.png,1,c:white|s:neutral|r:neutral,seen_fallback,,,blue-04-1.085--3,blue-04-1.085--3.png,-3,c:blue|s:thin|r:neutral,seen,,,1,,,data_56514c84715ff50011a43878.csv,1955,,,,,,,,,,,,memory,value_judgment,56514c84715ff50011a43878,neutral,neutral,9,1.311,59,thin,neutral,4,1.085,11,neutral,neutral,9,1.311,59,thin,neutral,4,1.085,11,neutral,neutral,,,,left,59,neutral,neutral,stem=neutral|cap=neutral,56514c84715ff50011a43878|0,,,,,,,,white-09-1.311-+1.png,blue-04-1.085--3.png,seen_fallback,seen,seen_fallback,seen,,,,,,,,,cross_color,seen_vs_seen
56514c84715ff50011a43878,1,memory_choice,4357956.399999999,,2083.4000000003725,1,blue,within_color_middle,c:blue|s:thick|r:neutral,c:blue|s:neutral|r:neutral,middle,2,abs(abs(v-line)_diff),2,4,zero_classifier,0,true,2,2,left,left,blue-09-1.244--1,blue-09-1.244--1.png,-1,c:blue|s:neutral|r:neutral,unseen_extra,2,0.008000000000000007,blue-09-1.236--2.png,c:blue|s:neutral|r:neutral,type,blue-13-1.040-+3,blue-13-1.040-+3.png,3,c:blue|s:thick|r:neutral,seen_extra,,,,,,right,blue-13-1.040-+3,blue-13-1.040-+3.png,3,c:blue|s:thick|r:neutral,seen_extra,,,blue-09-1.244--1,blue-09-1.244--1.png,-1,c:blue|s:neutral|r:neutral,unseen_extra,2,0.008000000000000007,1,,,data_56514c84715ff50011a43878.csv,1956,,,,,,,,,,,,memory,value_judgment,56514c84715ff50011a43878,neutral,neutral,9,1.244,14,thick,neutral,13,1.04,17,thick,neutral,13,1.04,17,neutral,neutral,9,1.244,14,neutral,neutral,,,,right,17,thick,neutral,stem=thick|cap=neutral,56514c84715ff50011a43878|1,2,2,middle,zero_classifier,true,c:blue|s:thick|r:neutral,c:blue|s:neutral|r:neutral,blue-09-1.244--1.png,blue-13-1.040-+3.png,unseen_extra,seen_extra,seen_extra,unseen_extra,2,,,2,,2,2,middle,within_color,seen_vs_unseen
56514c84715ff50011a43878,2,memory_choice,4361577.7,,2382.39999999851,1,cyan,within_color_close,c:cyan|s:neutral|r:neutral,c:cyan|s:thick|r:neutral,close,1,abs(abs(v-line)_diff),2,4,zero_classifier,0,true,2,2,right,right,cyan-10-1.340-+3,cyan-10-1.340-+3.png,3,c:cyan|s:neutral|r:neutral,seen_extra,,,,,,cyan-12-1.111--1,cyan-12-1.111--1.png,-1,c:cyan|s:thick|r:neutral,unseen_extra,2,0.0029999999999998916,cyan-14-1.108-+1.png,c:cyan|s:thick|r:neutral,type,right,cyan-12-1.111--1,cyan-12-1.111--1.png,-1,c:cyan|s:thick|r:neutral,unseen_extra,2,0.0029999999999998916,cyan-10-1.340-+3,cyan-10-1.340-+3.png,3,c:cyan|s:neutral|r:neutral,seen_extra,,,0,,,data_56514c84715ff50011a43878.csv,1957,,,,,,,,,,,,memory,value_judgment,56514c84715ff50011a43878,neutral,neutral,10,1.34,23,thick,neutral,12,1.111,26,thick,neutral,12,1.111,26,neutral,neutral,10,1.34,23,neutral,neutral,,,,right,26,thick,neutral,stem=thick|cap=neutral,56514c84715ff50011a43878|2,2,1,close,zero_classifier,true,c:cyan|s:neutral|r:neutral,c:cyan|s:thick|r:neutral,cyan-10-1.340-+3.png,cyan-12-1.111--1.png,seen_extra,unseen_extra,unseen_extra,seen_extra,,2,2,,,2,1,close,within_color,seen_vs_unseen
56514c84715ff50011a43878,3,memory_choice,4365093.899999999,,2352.2999999988824,0,,,,,,,,,,,,,2,2,right,right,white-03-0.200--4,white-03-0.200--4.png,-4,c:white|s:thin|r:flat,seen_fallback,,,,,,yellow-04-0.316--1,yellow-04-0.316--1.png,-1,c:yellow|s:thin|r:flat,seen,2,0,yellow-04-0.538-+1.png,c:yellow|s:thin|r:flat,type,right,yellow-04-0.316--1,yellow-04-0.316--1.png,-1,c:yellow|s:thin|r:flat,seen,2,0,white-03-0.200--4,white-03-0.200--4.png,-4,c:white|s:thin|r:flat,seen_fallback,,,1,,,data_56514c84715ff50011a43878.csv,1958,,,,,,,,,,,,memory,value_judgment,56514c84715ff50011a43878,thin,flat,3,0.2,55,thin,flat,4,0.316,64,thin,flat,4,0.316,64,thin,flat,3,0.2,55,neutral,neutral,,,,right,64,thin,flat,stem=thin|cap=flat,56514c84715ff50011a43878|3,2,,,,,,,white-03-0.200--4.png,yellow-04-0.316--1.png,seen_fallback,seen,seen,seen_fallback,,2,2,,,2,,,cross_color,seen_vs_seen
56514c84715ff50011a43878,4,memory_choice,4367951.499999999,,1666.5999999996275,1,black,within_color_far,c:black|s:thin|r:flat,c:black|s:thick|r:neutral,far,3,abs(abs(v-line)_diff),5,7,zero_classifier,0,true,2,2,left,left,black-14-0.920-+6,black-14-0.920-+6.png,6,c:black|s:thick|r:neutral,unseen_extra,2,0.01200000000000001,black-14-0.908-+5.png,c:black|s:thick|r:neutral,type,black-03-0.320--1,black-03-0.320--1.png,-1,c:black|s:thin|r:flat,seen_extra,,,,,,right,black-03-0.320--1,black-03-0.320--1.png,-1,c:black|s:thin|r:flat,seen_extra,,,black-14-0.920-+6,black-14-0.920-+6.png,6,c:black|s:thick|r:neutral,unseen_extra,2,0.01200000000000001,0,,,data_56514c84715ff50011a43878.csv,1959,,,,,,,,,,,,memory,value_judgment,56514c84715ff50011a43878,thick,neutral,14,0.92,8,thin,flat,3,0.32,1,thin,flat,3,0.32,1,thick,neutral,14,0.92,8,neutral,neutral,,,,right,1,thin,flat,stem=thin|cap=flat,56514c84715ff50011a43878|4,2,3,far,zero_classifier,true,c:black|s:thin|r:flat,c:black|s:thick|r:neutral,black-14-0.920-+6.png,black-03-0.320--1.png,unseen_extra,seen_extra,seen_extra,unseen_extra,2,,,2,,2,3,far,within_color,seen_vs_unseen
56514c84715ff50011a43878,5,memory_choice,4369943.3,,789,0,,,,,,,,,,,,,2,2,left,left,magenta-06-0.411--2,magenta-06-0.411--2.png,-2,c:magenta|s:neutral|r:flat,seen,2,0,magenta-05-0.384--1.png,c:magenta|s:thin|r:flat,color,white-07-0.687--3,white-07-0.687--3.png,-3,c:white|s:neutral|r:flat,seen,,,,,,left,magenta-06-0.411--2,magenta-06-0.411--2.png,-2,c:magenta|s:neutral|r:flat,seen,2,0,white-07-0.687--3,white-07-0.687--3.png,-3,c:white|s:neutral|r:flat,seen,,,1,,,data_56514c84715ff50011a43878.csv,1960,,,,,,,,,,,,memory,value_judgment,56514c84715ff50011a43878,neutral,flat,6,0.411,40,neutral,flat,7,0.687,58,neutral,flat,6,0.411,40,neutral,flat,7,0.687,58,neutral,neutral,,,,left,40,neutral,flat,stem=neutral|cap=flat,56514c84715ff50011a43878|5,2,,,,,,,magenta-06-0.411--2.png,white-07-0.687--3.png,seen,seen,seen,seen,2,,2,,,2,,,cross_color,seen_vs_seen
56514c84715ff50011a43878,6,memory_choice,4373367.8,,2276.60000000149,1,green,within_color_middle,c:green|s:thin|r:flat,c:green|s:thick|r:round,middle,2,abs(abs(v-line)_diff),2,4,zero_classifier,0,true,2,2,right,right,green-03-0.323-+3,green-03-0.323-+3.png,3,c:green|s:thin|r:flat,seen_extra,,,,,,green-13-1.991--1,green-13-1.991--1.png,-1,c:green|s:thick|r:round,unseen_extra,2,0,green-12-2.000--1.png,c:green|s:thick|r:round,type,right,green-13-1.991--1,green-13-1.991--1.png,-1,c:green|s:thick|r:round,unseen_extra,2,0,green-03-0.323-+3,green-03-0.323-+3.png,3,c:green|s:thin|r:flat,seen_extra,,,0,,,data_56514c84715ff50011a43878.csv,1961,,,,,,,,,,,,memory,value_judgment,56514c84715ff50011a43878,thin,flat,3,0.323,28,thick,round,13,1.991,36,thick,round,13,1.991,36,thin,flat,3,0.323,28,neutral,neutral,,,,right,36,thick,round,stem=thick|cap=round,56514c84715ff50011a43878|6,2,2,middle,zero_classifier,true,c:green|s:thin|r:flat,c:green|s:thick|r:round,green-03-0.323-+3.png,green-13-1.991--1.png,seen_extra,unseen_extra,unseen_extra,seen_extra,,2,2,,,2,2,middle,within_color,seen_vs_unseen
56514c84715ff50011a43878,7,memory_choice,4375974.8,,1491.699999999255,1,red,within_color_middle,c:red|s:thick|r:neutral,c:red|s:thin|r:neutral,middle,2,abs(abs(v-line)_diff),2,3,range_middle,5.5,true,2,2,right,right,red-12-1.119-+6,red-12-1.119-+6.png,6,c:red|s:thick|r:neutral,seen_extra,,,,,,red-05-1.112-+3,red-05-1.112-+3.png,3,c:red|s:thin|r:neutral,unseen_extra,2,0.03100000000000014,red-03-1.081-+1.png,c:red|s:thin|r:neutral,type,left,red-12-1.119-+6,red-12-1.119-+6.png,6,c:red|s:thick|r:neutral,seen_extra,,,red-05-1.112-+3,red-05-1.112-+3.png,3,c:red|s:thin|r:neutral,unseen_extra,2,0.03100000000000014,1,,,data_56514c84715ff50011a43878.csv,1962,,,,,,,,,,,,memory,value_judgment,56514c84715ff50011a43878,thick,neutral,12,1.119,53,thin,neutral,5,1.112,47,thick,neutral,12,1.119,53,thin,neutral,5,1.112,47,neutral,neutral,,,,left,53,thick,neutral,stem=thick|cap=neutral,56514c84715ff50011a43878|7,2,2,middle,range_middle,true,c:red|s:thick|r:neutral,c:red|s:thin|r:neutral,red-12-1.119-+6.png,red-05-1.112-+3.png,seen_extra,unseen_extra,seen_extra,unseen_extra,,2,,2,,2,2,middle,within_color,seen_vs_unseen
56514c84715ff50011a43878,8,memory_choice,4378413.3,,1349.7000000011176,0,,,,,,,,,,,,,2,2,left,left,magenta-14-0.597-+1,magenta-14-0.597-+1.png,1,c:magenta|s:thick|r:flat,seen_fallback,2,0,magenta-14-0.203--1.png,c:magenta|s:thick|r:flat,type,red-05-1.053-+1,red-05-1.053-+1.png,1,c:red|s:thin|r:neutral,seen,,,,,,right,red-05-1.053-+1,red-05-1.053-+1.png,1,c:red|s:thin|r:neutral,seen,,,magenta-14-0.597-+1,magenta-14-0.597-+1.png,1,c:magenta|s:thick|r:flat,seen_fallback,2,0,,,,data_56514c84715ff50011a43878.csv,1963,,,,,,,,,,,,memory,value_judgment,56514c84715ff50011a43878,thick,flat,14,0.597,43,thin,neutral,5,1.053,47,thin,neutral,5,1.053,47,thick,flat,14,0.597,43,neutral,neutral,,,,right,47,thin,neutral,stem=thin|cap=neutral,56514c84715ff50011a43878|8,2,,,,,,,magenta-14-0.597-+1.png,red-05-1.053-+1.png,seen_fallback,seen,seen,seen_fallback,2,,,2,,2,,,cross_color,seen_vs_seen
56514c84715ff50011a43878,9,memory_choice,4380767.8,,1180.0999999996275,1,black,within_color_close,c:black|s:thin|r:flat,c:black|s:thin|r:flat,close,1,abs(abs(v-line)_diff),1,3,zero_classifier,0,true,2,2,left,left,black-03-0.606-+1,black-03-0.606-+1.png,1,c:black|s:thin|r:flat,unseen_extra,2,0.006000000000000005,black-03-0.235-+1.png,c:black|s:thin|r:flat,type,black-04-0.205--2,black-04-0.205--2.png,-2,c:black|s:thin|r:flat,seen_extra,,,,,,left,black-03-0.606-+1,black-03-0.606-+1.png,1,c:black|s:thin|r:flat,unseen_extra,2,0.006000000000000005,black-04-0.205--2,black-04-0.205--2.png,-2,c:black|s:thin|r:flat,seen_extra,,,1,,,data_56514c84715ff50011a43878.csv,1964,,,,,,,,,,,,memory,value_judgment,56514c84715ff50011a43878,thin,flat,3,0.606,1,thin,flat,4,0.205,1,thin,flat,3,0.606,1,thin,flat,4,0.205,1,neutral,neutral,,,,left,1,thin,flat,stem=thin|cap=flat,56514c84715ff50011a43878|9,2,1,close,zero_classifier,true,c:black|s:thin|r:flat,c:black|s:thin|r:flat,black-03-0.606-+1.png,black-04-0.205--2.png,unseen_extra,seen_extra,unseen_extra,seen_extra,2,,2,,,2,1,close,within_color,seen_vs_unseen
56514c84715ff50011a43878,10,memory_choice,4382850.3,,987.8000000007451,1,black,within_color_middle,c:black|s:neutral|r:flat,c:black|s:thin|r:round,middle,2,abs(abs(v-line)_diff),2,4,zero_classifier,0,true,2,2,left,left,black-03-1.892-+3,black-03-1.892-+3.png,3,c:black|s:thin|r:round,unseen_extra,2,0,black-05-1.791-+3.png,c:black|s:thin|r:round,type,black-07-0.299--1,black-07-0.299--1.png,-1,c:black|s:neutral|r:flat,seen_extra,,,,,,left,black-03-1.892-+3,black-03-1.892-+3.png,3,c:black|s:thin|r:round,unseen_extra,2,0,black-07-0.299--1,black-07-0.299--1.png,-1,c:black|s:neutral|r:flat,seen_extra,,,1,,,data_56514c84715ff50011a43878.csv,1965,,,,,,,,,,,,memory,value_judgment,56514c84715ff50011a43878,thin,round,3,1.892,3,neutral,flat,7,0.299,4,thin,round,3,1.892,3,neutral,flat,7,0.299,4,neutral,neutral,,,,left,3,thin,round,stem=thin|cap=round,56514c84715ff50011a43878|10,2,2,middle,zero_classifier,true,c:black|s:neutral|r:flat,c:black|s:thin|r:round,black-03-1.892-+3.png,black-07-0.299--1.png,unseen_extra,seen_extra,unseen_extra,seen_extra,2,,2,,,2,2,middle,within_color,seen_vs_unseen
56514c84715ff50011a43878,11,memory_choice,4386511.899999999,,2517.7000000011176,1,green,within_color_far,c:green|s:thin|r:round,c:green|s:thin|r:flat,far,3,abs(abs(v-line)_diff),2,4,zero_classifier,0,true,2,2,left,left,green-05-0.376-+3,green-05-0.376-+3.png,3,c:green|s:thin|r:flat,unseen_extra,2,0,green-04-0.212-+3.png,c:green|s:thin|r:flat,type,green-03-1.989--1,green-03-1.989--1.png,-1,c:green|s:thin|r:round,seen_extra,,,,,,right,green-03-1.989--1,green-03-1.989--1.png,-1,c:green|s:thin|r:round,seen_extra,,,green-05-0.376-+3,green-05-0.376-+3.png,3,c:green|s:thin|r:flat,unseen_extra,2,0,0,,,data_56514c84715ff50011a43878.csv,1966,,,,,,,,,,,,memory,value_judgment,56514c84715ff50011a43878,thin,flat,5,0.376,28,thin,round,3,1.989,30,thin,round,3,1.989,30,thin,flat,5,0.376,28,neutral,neutral,,,,right,30,thin,round,stem=thin|cap=round,56514c84715ff50011a43878|11,2,3,far,zero_classifier,true,c:green|s:thin|r:round,c:green|s:thin|r:flat,green-05-0.376-+3.png,green-03-1.989--1.png,unseen_extra,seen_extra,seen_extra,unseen_extra,2,,,2,,2,3,far,within_color,seen_vs_unseen
56514c84715ff50011a43878,12,memory_choice,4389800.8,,2184.2000000011176,1,magenta,within_color_close,c:magenta|s:thick|r:flat,c:magenta|s:neutral|r:neutral,close,1,abs(abs(v-line)_diff),2,4,zero_classifier,0,true,2,2,right,right,magenta-14-0.211-+1,magenta-14-0.211-+1.png,1,c:magenta|s:thick|r:flat,seen_extra,,,,,,magenta-10-1.030--3,magenta-10-1.030--3.png,-3,c:magenta|s:neutral|r:neutral,unseen_extra,2,0.06900000000000006,magenta-10-0.961--3.png,c:magenta|s:neutral|r:neutral,type,right,magenta-10-1.030--3,magenta-10-1.030--3.png,-3,c:magenta|s:neutral|r:neutral,unseen_extra,2,0.06900000000000006,magenta-14-0.211-+1,magenta-14-0.211-+1.png,1,c:magenta|s:thick|r:flat,seen_extra,,,0,,,data_56514c84715ff50011a43878.csv,1967,,,,,,,,,,,,memory,value_judgment,56514c84715ff50011a43878,thick,flat,14,0.211,43,neutral,neutral,10,1.03,41,neutral,neutral,10,1.03,41,thick,flat,14,0.211,43,neutral,neutral,,,,right,41,neutral,neutral,stem=neutral|cap=neutral,56514c84715ff50011a43878|12,2,1,close,zero_classifier,true,c:magenta|s:thick|r:flat,c:magenta|s:neutral|r:neutral,magenta-14-0.211-+1.png,magenta-10-1.030--3.png,seen_extra,unseen_extra,unseen_extra,seen_extra,,2,2,,,2,1,close,within_color,seen_vs_unseen
56514c84715ff50011a43878,13,memory_choice,4392539.8,,1498.2000000011176,0,,,,,,,,,,,,,2,2,left,left,magenta-12-1.926--3,magenta-12-1.926--3.png,-3,c:magenta|s:thick|r:round,seen_fallback,2,0.16666666666666663,magenta-11-1.877--3.png,c:magenta|s:thick|r:round,type,red-14-0.205-+8,red-14-0.205-+8.png,8,c:red|s:thick|r:flat,seen_fallback,,,,,,right,red-14-0.205-+8,red-14-0.205-+8.png,8,c:red|s:thick|r:flat,seen_fallback,,,magenta-12-1.926--3,magenta-12-1.926--3.png,-3,c:magenta|s:thick|r:round,seen_fallback,2,0.16666666666666663,1,,,data_56514c84715ff50011a43878.csv,1968,,,,,,,,,,,,memory,value_judgment,56514c84715ff50011a43878,thick,round,12,1.926,45,thick,flat,14,0.205,52,thick,flat,14,0.205,52,thick,round,12,1.926,45,neutral,neutral,,,,right,52,thick,flat,stem=thick|cap=flat,56514c84715ff50011a43878|13,2,,,,,,,magenta-12-1.926--3.png,red-14-0.205-+8.png,seen_fallback,seen_fallback,seen_fallback,seen_fallback,2,,,2,,2,,,cross_color,seen_vs_seen
56514c84715ff50011a43878,14,memory_choice,4396719.600000001,,2884,1,red,within_color_close,c:red|s:thin|r:neutral,c:red|s:thin|r:flat,close,1,abs(abs(v-line)_diff),1,1,range_middle,5.5,false,2,2,right,right,red-04-1.049-+2,red-04-1.049-+2.png,2,c:red|s:thin|r:neutral,seen_extra,,,,,,red-05-0.242-+1,red-05-0.242-+1.png,1,c:red|s:thin|r:flat,unseen_extra,2,0,red-03-0.296-+2.png,c:red|s:thin|r:flat,type,left,red-04-1.049-+2,red-04-1.049-+2.png,2,c:red|s:thin|r:neutral,seen_extra,,,red-05-0.242-+1,red-05-0.242-+1.png,1,c:red|s:thin|r:flat,unseen_extra,2,0,1,,,data_56514c84715ff50011a43878.csv,1969,,,,,,,,,,,,memory,value_judgment,56514c84715ff50011a43878,thin,neutral,4,1.049,47,thin,flat,5,0.242,46,thin,neutral,4,1.049,47,thin,flat,5,0.242,46,neutral,neutral,,,,left,47,thin,neutral,stem=thin|cap=neutral,56514c84715ff50011a43878|14,2,1,close,range_middle,false,c:red|s:thin|r:neutral,c:red|s:thin|r:flat,red-04-1.049-+2.png,red-05-0.242-+1.png,seen_extra,unseen_extra,seen_extra,unseen_extra,,2,,2,,2,1,close,within_color,seen_vs_unseen
56514c84715ff50011a43878,15,memory_choice,4400115.999999999,,2091.699999999255,0,,,,,,,,,,,,,2,2,right,right,yellow-14-0.242--4,yellow-14-0.242--4.png,-4,c:yellow|s:thick|r:flat,seen,,,,,,black-03-0.997-+1,black-03-0.997-+1.png,1,c:black|s:thin|r:neutral,seen_fallback,2,0.0020000000000000018,black-03-0.999-+1.png,c:black|s:thin|r:neutral,type,right,black-03-0.997-+1,black-03-0.997-+1.png,1,c:black|s:thin|r:neutral,seen_fallback,2,0.0020000000000000018,yellow-14-0.242--4,yellow-14-0.242--4.png,-4,c:yellow|s:thick|r:flat,seen,,,1,,,data_56514c84715ff50011a43878.csv,1970,,,,,,,,,,,,memory,value_judgment,56514c84715ff50011a43878,thick,flat,14,0.242,70,thin,neutral,3,0.997,2,thin,neutral,3,0.997,2,thick,flat,14,0.242,70,neutral,neutral,,,,right,2,thin,neutral,stem=thin|cap=neutral,56514c84715ff50011a43878|15,2,,,,,,,yellow-14-0.242--4.png,black-03-0.997-+1.png,seen,seen_fallback,seen_fallback,seen,,2,2,,,2,,,cross_color,seen_vs_seen
56514c84715ff50011a43878,16,memory_choice,4401993.7,,689.5,0,,,,,,,,,,,,,2,2,right,right,black-06-1.823-+3,black-06-1.823-+3.png,3,c:black|s:neutral|r:round,seen,,,,,,red-10-1.973-+8,red-10-1.973-+8.png,8,c:red|s:neutral|r:round,seen_fallback,2,0.16666666666666663,red-09-1.872-+8.png,c:red|s:neutral|r:round,type,left,black-06-1.823-+3,black-06-1.823-+3.png,3,c:black|s:neutral|r:round,seen,,,red-10-1.973-+8,red-10-1.973-+8.png,8,c:red|s:neutral|r:round,seen_fallback,2,0.16666666666666663,0,,,data_56514c84715ff50011a43878.csv,1971,,,,,,,,,,,,memory,value_judgment,56514c84715ff50011a43878,neutral,round,6,1.823,6,neutral,round,10,1.973,51,neutral,round,6,1.823,6,neutral,round,10,1.973,51,neutral,neutral,,,,left,6,neutral,round,stem=neutral|cap=round,56514c84715ff50011a43878|16,2,,,,,,,black-06-1.823-+3.png,red-10-1.973-+8.png,seen,seen_fallback,seen,seen_fallback,,2,,2,,2,,,cross_color,seen_vs_seen
56514c84715ff50011a43878,17,memory_choice,4404474.8,,1331.9000000003725,0,,,,,,,,,,,,,,2,,left,white-09-1.989--1,white-09-1.989--1.png,-1,c:white|s:neutral|r:round,seen_fallback,2,0,white-09-1.696-+1.png,c:white|s:neutral|r:round,type,yellow-07-0.849--4,yellow-07-0.849--4.png,-4,c:yellow|s:neutral|r:neutral,seen_fallback,2,0.0030000000000000027,yellow-07-0.846--2.png,c:yellow|s:neutral|r:neutral,type,left,white-09-1.989--1,white-09-1.989--1.png,-1,c:white|s:neutral|r:round,seen_fallback,2,0,yellow-07-0.849--4,yellow-07-0.849--4.png,-4,c:yellow|s:neutral|r:neutral,seen_fallback,2,0.0030000000000000027,1,2,right,data_56514c84715ff50011a43878.csv,1972,,,,,,,,,,,,memory,value_judgment,56514c84715ff50011a43878,neutral,round,9,1.989,60,neutral,neutral,7,0.849,68,neutral,round,9,1.989,60,neutral,neutral,7,0.849,68,neutral,neutral,,,,left,60,neutral,round,stem=neutral|cap=round,56514c84715ff50011a43878|17,,,,,,,,white-09-1.989--1.png,yellow-07-0.849--4.png,seen_fallback,seen_fallback,seen_fallback,seen_fallback,2,2,2,2,,2,,,cross_color,seen_vs_seen
56514c84715ff50011a43878,18,memory_choice,4407225.2,,1526.300000000745,1,cyan,within_color_middle,c:cyan|s:thin|r:neutral,c:cyan|s:thick|r:neutral,middle,2,abs(abs(v-line)_diff),4,6,zero_classifier,0,true,2,2,right,right,cyan-04-0.906-+5,cyan-04-0.906-+5.png,5,c:cyan|s:thin|r:neutral,seen_extra,,,,,,cyan-12-1.037--1,cyan-12-1.037--1.png,-1,c:cyan|s:thick|r:neutral,unseen_extra,2,0.0020000000000000018,cyan-13-1.039-+2.png,c:cyan|s:thick|r:neutral,type,right,cyan-12-1.037--1,cyan-12-1.037--1.png,-1,c:cyan|s:thick|r:neutral,unseen_extra,2,0.0020000000000000018,cyan-04-0.906-+5,cyan-04-0.906-+5.png,5,c:cyan|s:thin|r:neutral,seen_extra,,,0,,,data_56514c84715ff50011a43878.csv,1973,,,,,,,,,,,,memory,value_judgment,56514c84715ff50011a43878,thin,neutral,4,0.906,20,thick,neutral,12,1.037,26,thick,neutral,12,1.037,26,thin,neutral,4,0.906,20,neutral,neutral,,,,right,26,thick,neutral,stem=thick|cap=neutral,56514c84715ff50011a43878|18,2,2,middle,zero_classifier,true,c:cyan|s:thin|r:neutral,c:cyan|s:thick|r:neutral,cyan-04-0.906-+5.png,cyan-12-1.037--1.png,seen_extra,unseen_extra,unseen_extra,seen_extra,,2,2,,,2,2,middle,within_color,seen_vs_unseen
56514c84715ff50011a43878,19,memory_choice,4410440.899999999,,2066.9000000003725,0,,,,,,,,,,,,,2,2,left,left,magenta-07-1.855--5,magenta-07-1.855--5.png,-5,c:magenta|s:neutral|r:round,seen_fallback,2,0,magenta-07-2.000--5.png,c:magenta|s:neutral|r:round,type,black-14-0.908-+5,black-14-0.908-+5.png,5,c:black|s:thick|r:neutral,seen_fallback,,,,,,right,black-14-0.908-+5,black-14-0.908-+5.png,5,c:black|s:thick|r:neutral,seen_fallback,,,magenta-07-1.855--5,magenta-07-1.855--5.png,-5,c:magenta|s:neutral|r:round,seen_fallback,2,0,1,,,data_56514c84715ff50011a43878.csv,1974,,,,,,,,,,,,memory,value_judgment,56514c84715ff50011a43878,neutral,round,7,1.855,42,thick,neutral,14,0.908,8,thick,neutral,14,0.908,8,neutral,round,7,1.855,42,neutral,neutral,,,,right,8,thick,neutral,stem=thick|cap=neutral,56514c84715ff50011a43878|19,2,,,,,,,magenta-07-1.855--5.png,black-14-0.908-+5.png,seen_fallback,seen_fallback,seen_fallback,seen_fallback,2,,,2,,2,,,cross_color,seen_vs_seen
56514c84715ff50011a43878,20,memory_choice,4414046.499999999,,2509.5,0,,,,,,,,,,,,,,2,,left,blue-07-1.084-+1,blue-07-1.084-+1.png,1,c:blue|s:neutral|r:neutral,seen_fallback,2,0.04499999999999993,blue-07-1.129-+1.png,c:blue|s:neutral|r:neutral,type,green-14-0.357-+3,green-14-0.357-+3.png,3,c:green|s:thick|r:flat,seen,2,0,green-12-0.207-+3.png,c:green|s:thick|r:flat,type,right,green-14-0.357-+3,green-14-0.357-+3.png,3,c:green|s:thick|r:flat,seen,2,0,blue-07-1.084-+1,blue-07-1.084-+1.png,1,c:blue|s:neutral|r:neutral,seen_fallback,2,0.04499999999999993,1,2,right,data_56514c84715ff50011a43878.csv,1975,,,,,,,,,,,,memory,value_judgment,56514c84715ff50011a43878,neutral,neutral,7,1.084,14,thick,flat,14,0.357,34,thick,flat,14,0.357,34,neutral,neutral,7,1.084,14,neutral,neutral,,,,right,34,thick,flat,stem=thick|cap=flat,56514c84715ff50011a43878|20,,,,,,,,blue-07-1.084-+1.png,green-14-0.357-+3.png,seen_fallback,seen,seen,seen_fallback,2,2,2,2,,2,,,cross_color,seen_vs_seen
56514c84715ff50011a43878,21,memory_choice,4417797.499999999,,2660.300000000745,1,yellow,within_color_close,c:yellow|s:thin|r:flat,c:yellow|s:thin|r:round,close,1,abs(abs(v-line)_diff),1,3,zero_classifier,0,true,2,2,left,left,yellow-03-1.984-+2,yellow-03-1.984-+2.png,2,c:yellow|s:thin|r:round,unseen_extra,2,0,yellow-05-1.997-+2.png,c:yellow|s:thin|r:round,type,yellow-03-0.565--1,yellow-03-0.565--1.png,-1,c:yellow|s:thin|r:flat,seen_extra,,,,,,right,yellow-03-0.565--1,yellow-03-0.565--1.png,-1,c:yellow|s:thin|r:flat,seen_extra,,,yellow-03-1.984-+2,yellow-03-1.984-+2.png,2,c:yellow|s:thin|r:round,unseen_extra,2,0,0,,,data_56514c84715ff50011a43878.csv,1976,,,,,,,,,,,,memory,value_judgment,56514c84715ff50011a43878,thin,round,3,1.984,66,thin,flat,3,0.565,64,thin,flat,3,0.565,64,thin,round,3,1.984,66,neutral,neutral,,,,right,64,thin,flat,stem=thin|cap=flat,56514c84715ff50011a43878|21,2,1,close,zero_classifier,true,c:yellow|s:thin|r:flat,c:yellow|s:thin|r:round,yellow-03-1.984-+2.png,yellow-03-0.565--1.png,unseen_extra,seen_extra,seen_extra,unseen_extra,2,,,2,,2,1,close,within_color,seen_vs_unseen
56514c84715ff50011a43878,22,memory_choice,4421476.3,,2578.9000000003725,0,,,,,,,,,,,,,2,2,left,left,white-13-0.211-+1,white-13-0.211-+1.png,1,c:white|s:thick|r:flat,seen,2,0,white-13-0.451-+3.png,c:white|s:thick|r:flat,type,white-14-1.088-+1,white-14-1.088-+1.png,1,c:white|s:thick|r:neutral,seen_fallback,,,,,,left,white-13-0.211-+1,white-13-0.211-+1.png,1,c:white|s:thick|r:flat,seen,2,0,white-14-1.088-+1,white-14-1.088-+1.png,1,c:white|s:thick|r:neutral,seen_fallback,,,,,,data_56514c84715ff50011a43878.csv,1977,,,,,,,,,,,,memory,value_judgment,56514c84715ff50011a43878,thick,flat,13,0.211,61,thick,neutral,14,1.088,62,thick,flat,13,0.211,61,thick,neutral,14,1.088,62,neutral,neutral,,,,left,61,thick,flat,stem=thick|cap=flat,56514c84715ff50011a43878|22,2,,,,,,,white-13-0.211-+1.png,white-14-1.088-+1.png,seen,seen_fallback,seen,seen_fallback,2,,2,,,2,,,within_color,seen_vs_seen
56514c84715ff50011a43878,23,memory_choice,4424153.100000001,,1595.5999999996275,0,,,,,,,,,,,,,,2,,left,yellow-03-1.006-+3,yellow-03-1.006-+3.png,3,c:yellow|s:thin|r:neutral,seen,2,0.014999999999999902,yellow-03-1.021-+3.png,c:yellow|s:thin|r:neutral,type,cyan-03-1.803-+7,cyan-03-1.803-+7.png,7,c:cyan|s:thin|r:round,seen,2,0,cyan-03-1.882-+7.png,c:cyan|s:thin|r:round,type,right,cyan-03-1.803-+7,cyan-03-1.803-+7.png,7,c:cyan|s:thin|r:round,seen,2,0,yellow-03-1.006-+3,yellow-03-1.006-+3.png,3,c:yellow|s:thin|r:neutral,seen,2,0.014999999999999902,1,2,right,data_56514c84715ff50011a43878.csv,1978,,,,,,,,,,,,memory,value_judgment,56514c84715ff50011a43878,thin,neutral,3,1.006,65,thin,round,3,1.803,21,thin,round,3,1.803,21,thin,neutral,3,1.006,65,neutral,neutral,,,,right,21,thin,round,stem=thin|cap=round,56514c84715ff50011a43878|23,,,,,,,,yellow-03-1.006-+3.png,cyan-03-1.803-+7.png,seen,seen,seen,seen,2,2,2,2,,2,,,cross_color,seen_vs_seen
56514c84715ff50011a43878,24,memory_choice,4425931.999999999,,640.6999999992549,0,,,,,,,,,,,,,2,2,left,left,cyan-14-0.241-+1,cyan-14-0.241-+1.png,1,c:cyan|s:thick|r:flat,seen,2,0,cyan-13-0.469-+2.png,c:cyan|s:thick|r:flat,type,green-07-0.526-+2,green-07-0.526-+2.png,2,c:green|s:neutral|r:flat,seen,,,,,,left,cyan-14-0.241-+1,cyan-14-0.241-+1.png,1,c:cyan|s:thick|r:flat,seen,2,0,green-07-0.526-+2,green-07-0.526-+2.png,2,c:green|s:neutral|r:flat,seen,,,0,,,data_56514c84715ff50011a43878.csv,1979,,,,,,,,,,,,memory,value_judgment,56514c84715ff50011a43878,thick,flat,14,0.241,25,neutral,flat,7,0.526,31,thick,flat,14,0.241,25,neutral,flat,7,0.526,31,neutral,neutral,,,,left,25,thick,flat,stem=thick|cap=flat,56514c84715ff50011a43878|24,2,,,,,,,cyan-14-0.241-+1.png,green-07-0.526-+2.png,seen,seen,seen,seen,2,,2,,,2,,,cross_color,seen_vs_seen
56514c84715ff50011a43878,25,memory_choice,4429849.399999999,,2741.5999999996275,0,,,,,,,,,,,,,,2,,left,green-14-0.931-+3,green-14-0.931-+3.png,3,c:green|s:thick|r:neutral,seen,2,0.015000000000000013,green-14-0.916-+3.png,c:green|s:thick|r:neutral,type,magenta-11-0.991--1,magenta-11-0.991--1.png,-1,c:magenta|s:thick|r:neutral,seen,2,0.17187721715741666,magenta-14-1.033--1.png,c:magenta|s:thick|r:neutral,type,left,green-14-0.931-+3,green-14-0.931-+3.png,3,c:green|s:thick|r:neutral,seen,2,0.015000000000000013,magenta-11-0.991--1,magenta-11-0.991--1.png,-1,c:magenta|s:thick|r:neutral,seen,2,0.17187721715741666,1,2,right,data_56514c84715ff50011a43878.csv,1980,,,,,,,,,,,,memory,value_judgment,56514c84715ff50011a43878,thick,neutral,14,0.931,35,thick,neutral,11,0.991,44,thick,neutral,14,0.931,35,thick,neutral,11,0.991,44,neutral,neutral,,,,left,35,thick,neutral,stem=thick|cap=neutral,56514c84715ff50011a43878|25,,,,,,,,green-14-0.931-+3.png,magenta-11-0.991--1.png,seen,seen,seen,seen,2,2,2,2,,2,,,cross_color,seen_vs_seen
56514c84715ff50011a43878,26,memory_choice,4431736.999999999,,739.7000000011176,0,,,,,,,,,,,,,1,1,left,left,magenta-06-0.867--4,magenta-06-0.867--4.png,-4,c:magenta|s:neutral|r:neutral,seen_fallback,1,0.3680000000000001,magenta-06-1.235--4.png,c:magenta|s:neutral|r:neutral,type,black-09-0.200-+4,black-09-0.200-+4.png,4,c:black|s:neutral|r:flat,seen_fallback,,,,,,right,black-09-0.200-+4,black-09-0.200-+4.png,4,c:black|s:neutral|r:flat,seen_fallback,,,magenta-06-0.867--4,magenta-06-0.867--4.png,-4,c:magenta|s:neutral|r:neutral,seen_fallback,1,0.3680000000000001,1,,,data_56514c84715ff50011a43878.csv,1981,,,,,,,,,,,,memory,value_judgment,56514c84715ff50011a43878,neutral,neutral,6,0.867,41,neutral,flat,9,0.2,4,neutral,flat,9,0.2,4,neutral,neutral,6,0.867,41,neutral,neutral,,,,right,4,neutral,flat,stem=neutral|cap=flat,56514c84715ff50011a43878|26,1,,,,,,,magenta-06-0.867--4.png,black-09-0.200-+4.png,seen_fallback,seen_fallback,seen_fallback,seen_fallback,1,,,1,,1,,,cross_color,seen_vs_seen
56514c84715ff50011a43878,27,memory_choice,4434017.8,,1175.2000000011176,0,,,,,,,,,,,,,,,,,blue-13-0.267-+2,blue-13-0.267-+2.png,2,c:blue|s:thick|r:flat,seen,,,,,,cyan-10-0.204-+2,cyan-10-0.204-+2.png,2,c:cyan|s:neutral|r:flat,seen_fallback,,,,,,right,cyan-10-0.204-+2,cyan-10-0.204-+2.png,2,c:cyan|s:neutral|r:flat,seen_fallback,,,blue-13-0.267-+2,blue-13-0.267-+2.png,2,c:blue|s:thick|r:flat,seen,,,,,,data_56514c84715ff50011a43878.csv,1982,,,,,,,,,,,,memory,value_judgment,56514c84715ff50011a43878,thick,flat,13,0.267,16,neutral,flat,10,0.204,22,neutral,flat,10,0.204,22,thick,flat,13,0.267,16,neutral,neutral,,,,right,22,neutral,flat,stem=neutral|cap=flat,56514c84715ff50011a43878|27,,,,,,,,blue-13-0.267-+2.png,cyan-10-0.204-+2.png,seen,seen_fallback,seen_fallback,seen,,,,,,,,,cross_color,seen_vs_seen
56514c84715ff50011a43878,28,memory_choice,4436285.100000001,,1160.5,0,,,,,,,,,,,,,,2,,left,white-05-1.941--3,white-05-1.941--3.png,-3,c:white|s:thin|r:round,seen_fallback,2,0,white-03-1.755--1.png,c:white|s:thin|r:round,type,magenta-03-1.999--6,magenta-03-1.999--6.png,-6,c:magenta|s:thin|r:round,seen_fallback,2,0,magenta-04-1.709--6.png,c:magenta|s:thin|r:round,type,left,white-05-1.941--3,white-05-1.941--3.png,-3,c:white|s:thin|r:round,seen_fallback,2,0,magenta-03-1.999--6,magenta-03-1.999--6.png,-6,c:magenta|s:thin|r:round,seen_fallback,2,0,1,2,right,data_56514c84715ff50011a43878.csv,1983,,,,,,,,,,,,memory,value_judgment,56514c84715ff50011a43878,thin,round,5,1.941,57,thin,round,3,1.999,39,thin,round,5,1.941,57,thin,round,3,1.999,39,neutral,neutral,,,,left,57,thin,round,stem=thin|cap=round,56514c84715ff50011a43878|28,,,,,,,,white-05-1.941--3.png,magenta-03-1.999--6.png,seen_fallback,seen_fallback,seen_fallback,seen_fallback,2,2,2,2,,2,,,cross_color,seen_vs_seen
56514c84715ff50011a43878,29,memory_choice,4439368.100000001,,1910.0999999996275,0,,,,,,,,,,,,,2,2,right,right,white-05-1.112--1,white-05-1.112--1.png,-1,c:white|s:thin|r:neutral,seen_fallback,,,,,,blue-04-2.000--6,blue-04-2.000--6.png,-6,c:blue|s:thin|r:round,seen_fallback,2,0,blue-03-1.944--5.png,c:blue|s:thin|r:round,type,left,white-05-1.112--1,white-05-1.112--1.png,-1,c:white|s:thin|r:neutral,seen_fallback,,,blue-04-2.000--6,blue-04-2.000--6.png,-6,c:blue|s:thin|r:round,seen_fallback,2,0,1,,,data_56514c84715ff50011a43878.csv,1984,,,,,,,,,,,,memory,value_judgment,56514c84715ff50011a43878,thin,neutral,5,1.112,56,thin,round,4,2.0,12,thin,neutral,5,1.112,56,thin,round,4,2.0,12,neutral,neutral,,,,left,56,thin,neutral,stem=thin|cap=neutral,56514c84715ff50011a43878|29,2,,,,,,,white-05-1.112--1.png,blue-04-2.000--6.png,seen_fallback,seen_fallback,seen_fallback,seen_fallback,,2,,2,,2,,,cross_color,seen_vs_seen
56514c84715ff50011a43878,30,memory_choice,4441723.100000001,,1177.5999999996275,0,,,,,,,,,,,,,,2,,left,red-05-1.878-+1,red-05-1.878-+1.png,1,c:red|s:thin|r:round,seen_fallback,2,0,red-04-1.859-+1.png,c:red|s:thin|r:round,type,magenta-03-1.046--4,magenta-03-1.046--4.png,-4,c:magenta|s:thin|r:neutral,seen,2,0.18900000000000006,magenta-06-1.235--4.png,c:magenta|s:neutral|r:neutral,color,left,red-05-1.878-+1,red-05-1.878-+1.png,1,c:red|s:thin|r:round,seen_fallback,2,0,magenta-03-1.046--4,magenta-03-1.046--4.png,-4,c:magenta|s:thin|r:neutral,seen,2,0.18900000000000006,1,2,right,data_56514c84715ff50011a43878.csv,1985,,,,,,,,,,,,memory,value_judgment,56514c84715ff50011a43878,thin,round,5,1.878,48,thin,neutral,3,1.046,38,thin,round,5,1.878,48,thin,neutral,3,1.046,38,neutral,neutral,,,,left,48,thin,round,stem=thin|cap=round,56514c84715ff50011a43878|30,,,,,,,,red-05-1.878-+1.png,magenta-03-1.046--4.png,seen_fallback,seen,seen_fallback,seen,2,2,2,2,,2,,,cross_color,seen_vs_seen
56514c84715ff50011a43878,31,memory_choice,4443489.2,,618,0,,,,,,,,,,,,,2,2,right,right,blue-14-0.897-+4,blue-14-0.897-+4.png,4,c:blue|s:thick|r:neutral,seen_fallback,,,,,,cyan-14-1.864-+1,cyan-14-1.864-+1.png,1,c:cyan|s:thick|r:round,seen_fallback,2,0,cyan-13-1.980-+1.png,c:cyan|s:thick|r:round,type,right,cyan-14-1.864-+1,cyan-14-1.864-+1.png,1,c:cyan|s:thick|r:round,seen_fallback,2,0,blue-14-0.897-+4,blue-14-0.897-+4.png,4,c:blue|s:thick|r:neutral,seen_fallback,,,0,,,data_56514c84715ff50011a43878.csv,1986,,,,,,,,,,,,memory,value_judgment,56514c84715ff50011a43878,thick,neutral,14,0.897,17,thick,round,14,1.864,27,thick,round,14,1.864,27,thick,neutral,14,0.897,17,neutral,neutral,,,,right,27,thick,round,stem=thick|cap=round,56514c84715ff50011a43878|31,2,,,,,,,blue-14-0.897-+4.png,cyan-14-1.864-+1.png,seen_fallback,seen_fallback,seen_fallback,seen_fallback,,2,2,,,2,,,cross_color,seen_vs_seen
56514c84715ff50011a43878,32,memory_choice,4445827.7,,1091.699999999255,1,red,within_color_far,c:red|s:neutral|r:flat,c:red|s:neutral|r:neutral,far,3,abs(abs(v-line)_diff),4,4,range_middle,5.5,false,2,2,left,left,red-10-0.962-+5,red-10-0.962-+5.png,5,c:red|s:neutral|r:neutral,unseen_extra,2,0.038000000000000034,red-10-1.000-+6.png,c:red|s:neutral|r:neutral,type,red-07-0.201-+1,red-07-0.201-+1.png,1,c:red|s:neutral|r:flat,seen_extra,,,,,,left,red-10-0.962-+5,red-10-0.962-+5.png,5,c:red|s:neutral|r:neutral,unseen_extra,2,0.038000000000000034,red-07-0.201-+1,red-07-0.201-+1.png,1,c:red|s:neutral|r:flat,seen_extra,,,1,,,data_56514c84715ff50011a43878.csv,1987,,,,,,,,,,,,memory,value_judgment,56514c84715ff50011a43878,neutral,neutral,10,0.962,50,neutral,flat,7,0.201,49,neutral,neutral,10,0.962,50,neutral,flat,7,0.201,49,neutral,neutral,,,,left,50,neutral,neutral,stem=neutral|cap=neutral,56514c84715ff50011a43878|32,2,3,far,range_middle,false,c:red|s:neutral|r:flat,c:red|s:neutral|r:neutral,red-10-0.962-+5.png,red-07-0.201-+1.png,unseen_extra,seen_extra,unseen_extra,seen_extra,2,,2,,,2,3,far,within_color,seen_vs_unseen
56514c84715ff50011a43878,33,memory_choice,4447624.899999999,,656.0999999996275,0,,,,,,,,,,,,,2,2,right,right,black-14-1.999-+7,black-14-1.999-+7.png,7,c:black|s:thick|r:round,seen,,,,,,green-06-1.943--1,green-06-1.943--1.png,-1,c:green|s:neutral|r:round,seen_fallback,2,0,green-06-1.993--1.png,c:green|s:neutral|r:round,type,left,black-14-1.999-+7,black-14-1.999-+7.png,7,c:black|s:thick|r:round,seen,,,green-06-1.943--1,green-06-1.943--1.png,-1,c:green|s:neutral|r:round,seen_fallback,2,0,1,,,data_56514c84715ff50011a43878.csv,1988,,,,,,,,,,,,memory,value_judgment,56514c84715ff50011a43878,thick,round,14,1.999,9,neutral,round,6,1.943,33,thick,round,14,1.999,9,neutral,round,6,1.943,33,neutral,neutral,,,,left,9,thick,round,stem=thick|cap=round,56514c84715ff50011a43878|33,2,,,,,,,black-14-1.999-+7.png,green-06-1.943--1.png,seen,seen_fallback,seen,seen_fallback,,2,,2,,2,,,cross_color,seen_vs_seen
56514c84715ff50011a43878,34,memory_choice,4449987.899999999,,1278.199999999255,0,,,,,,,,,,,,,2,2,right,right,black-03-0.209-+1,black-03-0.209-+1.png,1,c:black|s:thin|r:flat,seen,,,,,,white-13-1.997-+3,white-13-1.997-+3.png,3,c:white|s:thick|r:round,seen,2,0,white-12-1.715-+3.png,c:white|s:thick|r:round,type,right,white-13-1.997-+3,white-13-1.997-+3.png,3,c:white|s:thick|r:round,seen,2,0,black-03-0.209-+1,black-03-0.209-+1.png,1,c:black|s:thin|r:flat,seen,,,1,,,data_56514c84715ff50011a43878.csv,1989,,,,,,,,,,,,memory,value_judgment,56514c84715ff50011a43878,thin,flat,3,0.209,1,thick,round,13,1.997,63,thick,round,13,1.997,63,thin,flat,3,0.209,1,neutral,neutral,,,,right,63,thick,round,stem=thick|cap=round,56514c84715ff50011a43878|34,2,,,,,,,black-03-0.209-+1.png,white-13-1.997-+3.png,seen,seen,seen,seen,,2,2,,,2,,,cross_color,seen_vs_seen
56514c84715ff50011a43878,35,memory_choice,4452591.8,,1411,0,,,,,,,,,,,,,,2,,left,black-12-0.201-+5,black-12-0.201-+5.png,5,c:black|s:thick|r:flat,seen,2,0,black-13-0.214-+5.png,c:black|s:thick|r:flat,type,green-07-1.058-+1,green-07-1.058-+1.png,1,c:green|s:neutral|r:neutral,seen,2,0.04400000000000004,green-07-1.014-+1.png,c:green|s:neutral|r:neutral,type,left,black-12-0.201-+5,black-12-0.201-+5.png,5,c:black|s:thick|r:flat,seen,2,0,green-07-1.058-+1,green-07-1.058-+1.png,1,c:green|s:neutral|r:neutral,seen,2,0.04400000000000004,1,2,right,data_56514c84715ff50011a43878.csv,1990,,,,,,,,,,,,memory,value_judgment,56514c84715ff50011a43878,thick,flat,12,0.201,7,neutral,neutral,7,1.058,32,thick,flat,12,0.201,7,neutral,neutral,7,1.058,32,neutral,neutral,,,,left,7,thick,flat,stem=thick|cap=flat,56514c84715ff50011a43878|35,,,,,,,,black-12-0.201-+5.png,green-07-1.058-+1.png,seen,seen,seen,seen,2,2,2,2,,2,,,cross_color,seen_vs_seen
