source_file,participant_id,survey_name,source_trial_type,record_type,item_id,item_label,raw_value,scored_value,reverse_flag,correct_value,is_scored_item,trial_index,source_row_line,rt,time_elapsed,plate_index,plate_id,plate_label,image_path,color,slider_stem_pct,slider_cap_pct,desired_stem,desired_cap,chosen_filename,chosen_stem,chosen_cap
data_55bb9ae7fdf99b26d27fda01.csv,55bb9ae7fdf99b26d27fda01,bis_bas_survey,bis_bas_survey,question,item_1,BIS/BAS item 1,4,1,1,,,1159,1160,9156.20000000298,2700786.899999991,,,,,,,,,,,,
data_55bb9ae7fdf99b26d27fda01.csv,55bb9ae7fdf99b26d27fda01,bis_bas_survey,bis_bas_survey,question,item_2,BIS/BAS item 2,3,3,0,,,1159,1160,9156.20000000298,2700786.899999991,,,,,,,,,,,,
data_55bb9ae7fdf99b26d27fda01.csv,55bb9ae7fdf99b26d27fda01,bis_bas_survey,bis_bas_survey,question,item_3,BIS/BAS item 3,2,2,0,,,1159,1160,9156.20000000298,2700786.899999991,,,,,,,,,,,,
data_55bb9ae7fdf99b26d27fda01.csv,55bb9ae7fdf99b26d27fda01,bis_bas_survey,bis_bas_survey,question,item_4,BIS/BAS item 4,4,4,0,,,1159,1160,9156.20000000298,2700786.899999991,,,,,,,,,,,,
data_55bb9ae7fdf99b26d27fda01.csv,55bb9ae7fdf99b26d27fda01,bis_bas_survey,bis_bas_survey,question,item_5,BIS/BAS item 5,2,2,0,,,1159,1160,9156.20000000298,2700786.899999991,,,,,,,,,,,,
data_55bb9ae7fdf99b26d27fda01.csv,55bb9ae7fdf99b26d27fda01,bis_bas_survey,bis_bas_survey,question,item_6,BIS/BAS item 6,2,2,0,,,1159,1160,9156.20000000298,2700786.899999991,,,,,,,,,,,,
data_55bb9ae7fdf99b26d27fda01.csv,55bb9ae7fdf99b26d27fda01,bis_bas_survey,bis_bas_survey,question,item_7,BIS/BAS item 7,4,4,0,,,1159,1160,9156.20000000298,2700786.899999991,,,,,,,,,,,,
data_55bb9ae7fdf99b26d27fda01.csv,55bb9ae7fdf99b26d27fda01,bis_bas_survey,bis_bas_survey,question,item_8,BIS/BAS item 8,3,3,0,,,1159,1160,9156.20000000298,2700786.899999991,,,,,,,,,,,,
data_55bb9ae7fdf99b26d27fda01.csv,55bb9ae7fdf99b26d27fda01,bis_bas_survey,bis_bas_survey,question,item_9,BIS/BAS item 9,4,4,0,,,1159,1160,9156.20000000298,2700786.899999991,,,,,,,,,,,,
data_55bb9ae7fdf99b26d27fda01.csv,55bb9ae7fdf99b26d27fda01,bis_bas_survey,bis_bas_survey,question,item_10,BIS/BAS item 10,1,1,0,,,1159,1160,9156.20000000298,2700786.899999991,,,,,,,,,,,,
data_55bb9ae7fdf99b26d27fda01.csv,55bb9ae7fdf99b26d27fda01,bis_bas_survey,bis_bas_survey,question,item_11,BIS/BAS item 11,2,2,0,,,1159,1160,9156.20000000298,2700786.899999991,,,,,,,,,,,,
data_55bb9ae7fdf99b26d27fda01.csv,55bb9ae7fdf99b26d27fda01,bis_bas_survey,bis_bas_survey,question,item_12,BIS/BAS item 12,2,2,0,,,1159,1160,9156.20000000298,2700786.899999991,,,,,,,,,,,,
data_55bb9ae7fdf99b26d27fda01.csv,55bb9ae7fdf99b26d27fda01,bis_bas_survey,bis_bas_survey,question,item_13,BIS/BAS item 13,2,2,0,,,1159,1160,9156.20000000298,2700786.899999991,,,,,,,,,,,,
data_55bb9ae7fdf99b26d27fda01.csv,55bb9ae7fdf99b26d27fda01,bis_bas_survey,bis_bas_survey,question,item_14,BIS/BAS item 14,2,2,0,,,1159,1160,9156.20000000298,2700786.899999991,,,,,,,,,,,,
data_55bb9ae7fdf99b26d27fda01.csv,55bb9ae7fdf99b26d27fda01,bis_bas_survey,bis_bas_survey,question,item_15,BIS/BAS item 15,2,2,0,,,1159,1160,9156.20000000298,2700786.899999991,,,,,,,,,,,,
data_55bb9ae7fdf99b26d27fda01.csv,55bb9ae7fdf99b26d27fda01,bis_bas_survey,bis_bas_survey,question,item_16,BIS/BAS item 16,3,3,0,,,1159,1160,9156.20000000298,2700786.899999991,,,,,,,,,,,,
data_55bb9ae7fdf99b26d27fda01.csv,55bb9ae7fdf99b26d27fda01,bis_bas_survey,bis_bas_survey,question,item_17,BIS/BAS item 17,4,4,0,,,1159,1160,9156.20000000298,2700786.899999991,,,,,,,,,,,,
data_55bb9ae7fdf99b26d27fda01.csv,55bb9ae7fdf99b26d27fda01,bis_bas_survey,bis_bas_survey,question,item_18,BIS/BAS item 18,3,2,1,,,1159,1160,9156.20000000298,2700786.899999991,,,,,,,,,,,,
data_55bb9ae7fdf99b26d27fda01.csv,55bb9ae7fdf99b26d27fda01,bis_bas_survey,bis_bas_survey,question,item_19,BIS/BAS item 19,3,3,0,,,1159,1160,9156.20000000298,2700786.899999991,,,,,,,,,,,,
data_55bb9ae7fdf99b26d27fda01.csv,55bb9ae7fdf99b26d27fda01,bis_bas_survey,bis_bas_survey,question,item_20,BIS/BAS item 20,1,1,0,,,1159,1160,9156.20000000298,2700786.899999991,,,,,,,,,,,,
data_55bb9ae7fdf99b26d27fda01.csv,55bb9ae7fdf99b26d27fda01,bis_bas_survey,bis_bas_survey,score,bisbas_raw_total,bisbas_raw_total,53,,,,,1159,1160,9156.20000000298,2700786.899999991,,,,,,,,,,,,
data_55bb9ae7fdf99b26d27fda01.csv,55bb9ae7fdf99b26d27fda01,bis_bas_survey,bis_bas_survey,score,bisbas_raw_mean,bisbas_raw_mean,2.65,,,,,1159,1160,9156.20000000298,2700786.899999991,,,,,,,,,,,,
data_55bb9ae7fdf99b26d27fda01.csv,55bb9ae7fdf99b26d27fda01,bis_bas_survey,bis_bas_survey,score,bisbas_scored_total,bisbas_scored_total,49,,,,,1159,1160,9156.20000000298,2700786.899999991,,,,,,,,,,,,
data_55bb9ae7fdf99b26d27fda01.csv,55bb9ae7fdf99b26d27fda01,bis_bas_survey,bis_bas_survey,score,bisbas_scored_mean,bisbas_scored_mean,2.45,,,,,1159,1160,9156.20000000298,2700786.899999991,,,,,,,,,,,,
data_55bb9ae7fdf99b26d27fda01.csv,55bb9ae7fdf99b26d27fda01,bis_bas_survey,bis_bas_survey,score,bis_score_sum,bis_score_sum,11,,,,,1159,1160,9156.20000000298,2700786.899999991,,,,,,,,,,,,
data_55bb9ae7fdf99b26d27fda01.csv,55bb9ae7fdf99b26d27fda01,bis_bas_survey,bis_bas_survey,score,bis_score_mean,bis_score_mean,1.5714285714285714,,,,,1159,1160,9156.20000000298,2700786.899999991,,,,,,,,,,,,
data_55bb9ae7fdf99b26d27fda01.csv,55bb9ae7fdf99b26d27fda01,bis_bas_survey,bis_bas_survey,score,bas_drive_sum,bas_drive_sum,15,,,,,1159,1160,9156.20000000298,2700786.899999991,,,,,,,,,,,,
data_55bb9ae7fdf99b26d27fda01.csv,55bb9ae7fdf99b26d27fda01,bis_bas_survey,bis_bas_survey,score,bas_drive_mean,bas_drive_mean,3.75,,,,,1159,1160,9156.20000000298,2700786.899999991,,,,,,,,,,,,
data_55bb9ae7fdf99b26d27fda01.csv,55bb9ae7fdf99b26d27fda01,bis_bas_survey,bis_bas_survey,score,bas_fun_seeking_sum,bas_fun_seeking_sum,12,,,,,1159,1160,9156.20000000298,2700786.899999991,,,,,,,,,,,,
data_55bb9ae7fdf99b26d27fda01.csv,55bb9ae7fdf99b26d27fda01,bis_bas_survey,bis_bas_survey,score,bas_fun_seeking_mean,bas_fun_seeking_mean,3,,,,,1159,1160,9156.20000000298,2700786.899999991,,,,,,,,,,,,
data_55bb9ae7fdf99b26d27fda01.csv,55bb9ae7fdf99b26d27fda01,bis_bas_survey,bis_bas_survey,score,bas_reward_responsiveness_sum,bas_reward_responsiveness_sum,11,,,,,1159,1160,9156.20000000298,2700786.899999991,,,,,,,,,,,,
data_55bb9ae7fdf99b26d27fda01.csv,55bb9ae7fdf99b26d27fda01,bis_bas_survey,bis_bas_survey,score,bas_reward_responsiveness_mean,bas_reward_responsiveness_mean,2.2,,,,,1159,1160,9156.20000000298,2700786.899999991,,,,,,,,,,,,
data_55bb9ae7fdf99b26d27fda01.csv,55bb9ae7fdf99b26d27fda01,bis_bas_survey,bis_bas_survey,score,bas_total_sum,bas_total_sum,38,,,,,1159,1160,9156.20000000298,2700786.899999991,,,,,,,,,,,,
data_55bb9ae7fdf99b26d27fda01.csv,55bb9ae7fdf99b26d27fda01,bis_bas_survey,bis_bas_survey,score,bas_total_mean,bas_total_mean,2.923076923076923,,,,,1159,1160,9156.20000000298,2700786.899999991,,,,,,,,,,,,
data_55bb9ae7fdf99b26d27fda01.csv,55bb9ae7fdf99b26d27fda01,color_blind_survey,color_blind_survey_plate,question,ishihara_1,Practice,12,true,,12,false,,1163,3057,,1,ishihara_1,Practice,TexturePack/colorblind/500px-Ishihara_1.svg.png,,,,,,,,
data_55bb9ae7fdf99b26d27fda01.csv,55bb9ae7fdf99b26d27fda01,color_blind_survey,color_blind_survey_plate,question,ishihara_9,Plate 1,74,true,,74,true,,1164,3348,,2,ishihara_9,Plate 1,TexturePack/colorblind/500px-Ishihara_9.svg.png,,,,,,,,
data_55bb9ae7fdf99b26d27fda01.csv,55bb9ae7fdf99b26d27fda01,color_blind_survey,color_blind_survey_plate,question,ishihara_11,Plate 2,6,true,,6,true,,1165,4207,,3,ishihara_11,Plate 2,TexturePack/colorblind/500px-Ishihara_11.PNG,,,,,,,,
data_55bb9ae7fdf99b26d27fda01.csv,55bb9ae7fdf99b26d27fda01,color_blind_survey,color_blind_survey_plate,question,ishihara_23,Plate 3,42,true,,42,true,,1166,3739,,4,ishihara_23,Plate 3,TexturePack/colorblind/500px-Ishihara_23.PNG,,,,,,,,
data_55bb9ae7fdf99b26d27fda01.csv,55bb9ae7fdf99b26d27fda01,color_blind_survey,color_blind_survey_summary,score,n_items_total,n_items_total,4,,,,,,1167,,,,,,,,,,,,,,
data_55bb9ae7fdf99b26d27fda01.csv,55bb9ae7fdf99b26d27fda01,color_blind_survey,color_blind_survey_summary,score,n_items_scored,n_items_scored,3,,,,,,1167,,,,,,,,,,,,,,
data_55bb9ae7fdf99b26d27fda01.csv,55bb9ae7fdf99b26d27fda01,color_blind_survey,color_blind_survey_summary,score,n_correct_scored,n_correct_scored,3,,,,,,1167,,,,,,,,,,,,,,
data_55bb9ae7fdf99b26d27fda01.csv,55bb9ae7fdf99b26d27fda01,color_blind_survey,color_blind_survey_summary,score,accuracy_scored,accuracy_scored,1,,,,,,1167,,,,,,,,,,,,,,
data_55bb9ae7fdf99b26d27fda01.csv,55bb9ae7fdf99b26d27fda01,color_blind_survey,color_blind_survey_summary,score,passed_all_scored,passed_all_scored,true,,,,,,1167,,,,,,,,,,,,,,
data_55bb9ae7fdf99b26d27fda01.csv,55bb9ae7fdf99b26d27fda01,five_dcr_survey,five_dcr_survey,question,q1,5DCR question 1,5,5,0,,,,1162,206466,,,,,,,,,,,,,
data_55bb9ae7fdf99b26d27fda01.csv,55bb9ae7fdf99b26d27fda01,five_dcr_survey,five_dcr_survey,question,q2,5DCR question 2,5,5,0,,,,1162,206466,,,,,,,,,,,,,
data_55bb9ae7fdf99b26d27fda01.csv,55bb9ae7fdf99b26d27fda01,five_dcr_survey,five_dcr_survey,question,q3,5DCR question 3,6,6,0,,,,1162,206466,,,,,,,,,,,,,
data_55bb9ae7fdf99b26d27fda01.csv,55bb9ae7fdf99b26d27fda01,five_dcr_survey,five_dcr_survey,question,q4,5DCR question 4,6,6,0,,,,1162,206466,,,,,,,,,,,,,
data_55bb9ae7fdf99b26d27fda01.csv,55bb9ae7fdf99b26d27fda01,five_dcr_survey,five_dcr_survey,question,q5,5DCR question 5,5,5,0,,,,1162,206466,,,,,,,,,,,,,
data_55bb9ae7fdf99b26d27fda01.csv,55bb9ae7fdf99b26d27fda01,five_dcr_survey,five_dcr_survey,question,q6,5DCR question 6,6,6,0,,,,1162,206466,,,,,,,,,,,,,
data_55bb9ae7fdf99b26d27fda01.csv,55bb9ae7fdf99b26d27fda01,five_dcr_survey,five_dcr_survey,question,q7,5DCR question 7,6,6,0,,,,1162,206466,,,,,,,,,,,,,
data_55bb9ae7fdf99b26d27fda01.csv,55bb9ae7fdf99b26d27fda01,five_dcr_survey,five_dcr_survey,question,q8,5DCR question 8,6,6,0,,,,1162,206466,,,,,,,,,,,,,
data_55bb9ae7fdf99b26d27fda01.csv,55bb9ae7fdf99b26d27fda01,five_dcr_survey,five_dcr_survey,question,q9,5DCR question 9,3,5,1,,,,1162,206466,,,,,,,,,,,,,
data_55bb9ae7fdf99b26d27fda01.csv,55bb9ae7fdf99b26d27fda01,five_dcr_survey,five_dcr_survey,question,q10,5DCR question 10,5,3,1,,,,1162,206466,,,,,,,,,,,,,
data_55bb9ae7fdf99b26d27fda01.csv,55bb9ae7fdf99b26d27fda01,five_dcr_survey,five_dcr_survey,question,q11,5DCR question 11,5,3,1,,,,1162,206466,,,,,,,,,,,,,
data_55bb9ae7fdf99b26d27fda01.csv,55bb9ae7fdf99b26d27fda01,five_dcr_survey,five_dcr_survey,question,q12,5DCR question 12,5,3,1,,,,1162,206466,,,,,,,,,,,,,
data_55bb9ae7fdf99b26d27fda01.csv,55bb9ae7fdf99b26d27fda01,five_dcr_survey,five_dcr_survey,question,q13,5DCR question 13,2,2,0,,,,1162,206466,,,,,,,,,,,,,
data_55bb9ae7fdf99b26d27fda01.csv,55bb9ae7fdf99b26d27fda01,five_dcr_survey,five_dcr_survey,question,q14,5DCR question 14,2,2,0,,,,1162,206466,,,,,,,,,,,,,
data_55bb9ae7fdf99b26d27fda01.csv,55bb9ae7fdf99b26d27fda01,five_dcr_survey,five_dcr_survey,question,q15,5DCR question 15,3,3,0,,,,1162,206466,,,,,,,,,,,,,
data_55bb9ae7fdf99b26d27fda01.csv,55bb9ae7fdf99b26d27fda01,five_dcr_survey,five_dcr_survey,question,q16,5DCR question 16,3,3,0,,,,1162,206466,,,,,,,,,,,,,
data_55bb9ae7fdf99b26d27fda01.csv,55bb9ae7fdf99b26d27fda01,five_dcr_survey,five_dcr_survey,question,q17,5DCR question 17,7,7,0,,,,1162,206466,,,,,,,,,,,,,
data_55bb9ae7fdf99b26d27fda01.csv,55bb9ae7fdf99b26d27fda01,five_dcr_survey,five_dcr_survey,question,q18,5DCR question 18,6,6,0,,,,1162,206466,,,,,,,,,,,,,
data_55bb9ae7fdf99b26d27fda01.csv,55bb9ae7fdf99b26d27fda01,five_dcr_survey,five_dcr_survey,question,q19,5DCR question 19,6,6,0,,,,1162,206466,,,,,,,,,,,,,
data_55bb9ae7fdf99b26d27fda01.csv,55bb9ae7fdf99b26d27fda01,five_dcr_survey,five_dcr_survey,question,q20,5DCR question 20,5,5,0,,,,1162,206466,,,,,,,,,,,,,
data_55bb9ae7fdf99b26d27fda01.csv,55bb9ae7fdf99b26d27fda01,five_dcr_survey,five_dcr_survey,question,q21,5DCR question 21,6,6,0,,,,1162,206466,,,,,,,,,,,,,
data_55bb9ae7fdf99b26d27fda01.csv,55bb9ae7fdf99b26d27fda01,five_dcr_survey,five_dcr_survey,question,q22,5DCR question 22,2,2,0,,,,1162,206466,,,,,,,,,,,,,
data_55bb9ae7fdf99b26d27fda01.csv,55bb9ae7fdf99b26d27fda01,five_dcr_survey,five_dcr_survey,question,q23,5DCR question 23,2,2,0,,,,1162,206466,,,,,,,,,,,,,
data_55bb9ae7fdf99b26d27fda01.csv,55bb9ae7fdf99b26d27fda01,five_dcr_survey,five_dcr_survey,question,q24,5DCR question 24,3,3,0,,,,1162,206466,,,,,,,,,,,,,
data_55bb9ae7fdf99b26d27fda01.csv,55bb9ae7fdf99b26d27fda01,five_dcr_survey,five_dcr_survey,score,joyous_exploration_avg,joyous_exploration_avg,5.5,,,,,,1162,206466,,,,,,,,,,,,,
data_55bb9ae7fdf99b26d27fda01.csv,55bb9ae7fdf99b26d27fda01,five_dcr_survey,five_dcr_survey,score,deprivation_sensitivity_avg,deprivation_sensitivity_avg,5.75,,,,,,1162,206466,,,,,,,,,,,,,
data_55bb9ae7fdf99b26d27fda01.csv,55bb9ae7fdf99b26d27fda01,five_dcr_survey,five_dcr_survey,score,stress_tolerance_avg,stress_tolerance_avg,3.5,,,,,,1162,206466,,,,,,,,,,,,,
data_55bb9ae7fdf99b26d27fda01.csv,55bb9ae7fdf99b26d27fda01,five_dcr_survey,five_dcr_survey,score,thrill_seeking_avg,thrill_seeking_avg,2.5,,,,,,1162,206466,,,,,,,,,,,,,
data_55bb9ae7fdf99b26d27fda01.csv,55bb9ae7fdf99b26d27fda01,five_dcr_survey,five_dcr_survey,score,general_social_curiosity_avg,general_social_curiosity_avg,6,,,,,,1162,206466,,,,,,,,,,,,,
data_55bb9ae7fdf99b26d27fda01.csv,55bb9ae7fdf99b26d27fda01,five_dcr_survey,five_dcr_survey,score,covert_social_curiosity_avg,covert_social_curiosity_avg,3.25,,,,,,1162,206466,,,,,,,,,,,,,
data_55bb9ae7fdf99b26d27fda01.csv,55bb9ae7fdf99b26d27fda01,need_for_cognition_survey,need_for_cognition_survey,question,item_1,NFC item 1,4,4,0,,,1160,1161,1992.5,2854830.099999994,,,,,,,,,,,,
data_55bb9ae7fdf99b26d27fda01.csv,55bb9ae7fdf99b26d27fda01,need_for_cognition_survey,need_for_cognition_survey,question,item_2,NFC item 2,5,5,0,,,1160,1161,1992.5,2854830.099999994,,,,,,,,,,,,
data_55bb9ae7fdf99b26d27fda01.csv,55bb9ae7fdf99b26d27fda01,need_for_cognition_survey,need_for_cognition_survey,question,item_3,NFC item 3,1,5,1,,,1160,1161,1992.5,2854830.099999994,,,,,,,,,,,,
data_55bb9ae7fdf99b26d27fda01.csv,55bb9ae7fdf99b26d27fda01,need_for_cognition_survey,need_for_cognition_survey,question,item_4,NFC item 4,2,4,1,,,1160,1161,1992.5,2854830.099999994,,,,,,,,,,,,
data_55bb9ae7fdf99b26d27fda01.csv,55bb9ae7fdf99b26d27fda01,need_for_cognition_survey,need_for_cognition_survey,question,item_5,NFC item 5,2,4,1,,,1160,1161,1992.5,2854830.099999994,,,,,,,,,,,,
data_55bb9ae7fdf99b26d27fda01.csv,55bb9ae7fdf99b26d27fda01,need_for_cognition_survey,need_for_cognition_survey,question,item_6,NFC item 6,4,4,0,,,1160,1161,1992.5,2854830.099999994,,,,,,,,,,,,
data_55bb9ae7fdf99b26d27fda01.csv,55bb9ae7fdf99b26d27fda01,need_for_cognition_survey,need_for_cognition_survey,question,item_7,NFC item 7,1,5,1,,,1160,1161,1992.5,2854830.099999994,,,,,,,,,,,,
data_55bb9ae7fdf99b26d27fda01.csv,55bb9ae7fdf99b26d27fda01,need_for_cognition_survey,need_for_cognition_survey,question,item_8,NFC item 8,2,4,1,,,1160,1161,1992.5,2854830.099999994,,,,,,,,,,,,
data_55bb9ae7fdf99b26d27fda01.csv,55bb9ae7fdf99b26d27fda01,need_for_cognition_survey,need_for_cognition_survey,question,item_9,NFC item 9,2,4,1,,,1160,1161,1992.5,2854830.099999994,,,,,,,,,,,,
data_55bb9ae7fdf99b26d27fda01.csv,55bb9ae7fdf99b26d27fda01,need_for_cognition_survey,need_for_cognition_survey,question,item_10,NFC item 10,4,4,0,,,1160,1161,1992.5,2854830.099999994,,,,,,,,,,,,
data_55bb9ae7fdf99b26d27fda01.csv,55bb9ae7fdf99b26d27fda01,need_for_cognition_survey,need_for_cognition_survey,question,item_11,NFC item 11,4,4,0,,,1160,1161,1992.5,2854830.099999994,,,,,,,,,,,,
data_55bb9ae7fdf99b26d27fda01.csv,55bb9ae7fdf99b26d27fda01,need_for_cognition_survey,need_for_cognition_survey,question,item_12,NFC item 12,2,4,1,,,1160,1161,1992.5,2854830.099999994,,,,,,,,,,,,
data_55bb9ae7fdf99b26d27fda01.csv,55bb9ae7fdf99b26d27fda01,need_for_cognition_survey,need_for_cognition_survey,question,item_13,NFC item 13,4,4,0,,,1160,1161,1992.5,2854830.099999994,,,,,,,,,,,,
data_55bb9ae7fdf99b26d27fda01.csv,55bb9ae7fdf99b26d27fda01,need_for_cognition_survey,need_for_cognition_survey,question,item_14,NFC item 14,4,4,0,,,1160,1161,1992.5,2854830.099999994,,,,,,,,,,,,
data_55bb9ae7fdf99b26d27fda01.csv,55bb9ae7fdf99b26d27fda01,need_for_cognition_survey,need_for_cognition_survey,question,item_15,NFC item 15,4,4,0,,,1160,1161,1992.5,2854830.099999994,,,,,,,,,,,,
data_55bb9ae7fdf99b26d27fda01.csv,55bb9ae7fdf99b26d27fda01,need_for_cognition_survey,need_for_cognition_survey,question,item_16,NFC item 16,2,4,1,,,1160,1161,1992.5,2854830.099999994,,,,,,,,,,,,
data_55bb9ae7fdf99b26d27fda01.csv,55bb9ae7fdf99b26d27fda01,need_for_cognition_survey,need_for_cognition_survey,question,item_17,NFC item 17,4,2,1,,,1160,1161,1992.5,2854830.099999994,,,,,,,,,,,,
data_55bb9ae7fdf99b26d27fda01.csv,55bb9ae7fdf99b26d27fda01,need_for_cognition_survey,need_for_cognition_survey,question,item_18,NFC item 18,4,4,0,,,1160,1161,1992.5,2854830.099999994,,,,,,,,,,,,
data_55bb9ae7fdf99b26d27fda01.csv,55bb9ae7fdf99b26d27fda01,need_for_cognition_survey,need_for_cognition_survey,score,nfc_raw_total,nfc_raw_total,55,,,,,1160,1161,1992.5,2854830.099999994,,,,,,,,,,,,
data_55bb9ae7fdf99b26d27fda01.csv,55bb9ae7fdf99b26d27fda01,need_for_cognition_survey,need_for_cognition_survey,score,nfc_raw_mean,nfc_raw_mean,3.0555555555555554,,,,,1160,1161,1992.5,2854830.099999994,,,,,,,,,,,,
data_55bb9ae7fdf99b26d27fda01.csv,55bb9ae7fdf99b26d27fda01,need_for_cognition_survey,need_for_cognition_survey,score,nfc_scored_total,nfc_scored_total,73,,,,,1160,1161,1992.5,2854830.099999994,,,,,,,,,,,,
data_55bb9ae7fdf99b26d27fda01.csv,55bb9ae7fdf99b26d27fda01,need_for_cognition_survey,need_for_cognition_survey,score,nfc_scored_mean,nfc_scored_mean,4.055555555555555,,,,,1160,1161,1992.5,2854830.099999994,,,,,,,,,,,,
data_55bb9ae7fdf99b26d27fda01.csv,55bb9ae7fdf99b26d27fda01,post_survey,post_survey,question,enjoyment,enjoyment,4,,,,,1176,1177,,3196888.199999988,,,,,,,,,,,,
data_55bb9ae7fdf99b26d27fda01.csv,55bb9ae7fdf99b26d27fda01,post_survey,post_survey,question,difficulty,difficulty,6,,,,,1176,1177,,3196888.199999988,,,,,,,,,,,,
data_55bb9ae7fdf99b26d27fda01.csv,55bb9ae7fdf99b26d27fda01,post_survey,post_survey,question,color_rank_most_to_least,color_rank_most_to_least,blue>white>red>magenta>cyan>black>green>yellow,,,,,1176,1177,,3196888.199999988,,,,,,,,,,,,
data_55bb9ae7fdf99b26d27fda01.csv,55bb9ae7fdf99b26d27fda01,post_survey,post_survey,question,room_rank_easiest_to_hardest,room_rank_easiest_to_hardest,lava>desert>ocean>forest>cave,,,,,1176,1177,,3196888.199999988,,,,,,,,,,,,
data_55bb9ae7fdf99b26d27fda01.csv,55bb9ae7fdf99b26d27fda01,post_survey,post_survey,question,builder_color_order,builder_color_order,black>white>red>green>blue>cyan>magenta>yellow,,,,,1176,1177,,3196888.199999988,,,,,,,,,,,,
data_55bb9ae7fdf99b26d27fda01.csv,55bb9ae7fdf99b26d27fda01,post_survey_builder,post_survey_builder,question,black,Post-survey builder black,,,,,,1167,1168,11552.70000000298,3088093,,,,,black,50,65,8.5,1.37,TexturePack/mushroom_pack/images_balanced/black-08-1.388-+2.png,8,1.388
data_55bb9ae7fdf99b26d27fda01.csv,55bb9ae7fdf99b26d27fda01,post_survey_builder,post_survey_builder,question,white,Post-survey builder white,,,,,,1168,1169,5414.5999999940395,3093508.199999988,,,,,white,33,51,6.630000000000001,1.118,TexturePack/mushroom_pack/images_balanced/white-07-1.142--1.png,7,1.142
data_55bb9ae7fdf99b26d27fda01.csv,55bb9ae7fdf99b26d27fda01,post_survey_builder,post_survey_builder,question,red,Post-survey builder red,,,,,,1169,1170,5808.4000000059605,3099317.099999994,,,,,red,55,57,9.05,1.226,TexturePack/mushroom_pack/images_balanced/red-09-1.211-+4.png,9,1.211
data_55bb9ae7fdf99b26d27fda01.csv,55bb9ae7fdf99b26d27fda01,post_survey_builder,post_survey_builder,question,green,Post-survey builder green,,,,,,1170,1171,6061.79999999702,3105379.199999988,,,,,green,31,60,6.41,1.28,TexturePack/mushroom_pack/images_balanced/green-06-1.262-+1.png,6,1.262
data_55bb9ae7fdf99b26d27fda01.csv,55bb9ae7fdf99b26d27fda01,post_survey_builder,post_survey_builder,question,blue,Post-survey builder blue,,,,,,1171,1172,7433.20000000298,3112812.799999997,,,,,blue,69,10,10.59,0.38,TexturePack/mushroom_pack/images_balanced/blue-11-0.493-+2.png,11,0.493
data_55bb9ae7fdf99b26d27fda01.csv,55bb9ae7fdf99b26d27fda01,post_survey_builder,post_survey_builder,question,cyan,Post-survey builder cyan,,,,,,1172,1173,5723.4000000059605,3118536.5,,,,,cyan,33,50,6.630000000000001,1.1,TexturePack/mushroom_pack/images_balanced/cyan-07-1.090-+5.png,7,1.09
data_55bb9ae7fdf99b26d27fda01.csv,55bb9ae7fdf99b26d27fda01,post_survey_builder,post_survey_builder,question,magenta,Post-survey builder magenta,,,,,,1173,1174,3067.1000000089407,3121604,,,,,magenta,72,64,10.92,1.352,TexturePack/mushroom_pack/images_balanced/magenta-11-0.991--1.png,11,0.991
data_55bb9ae7fdf99b26d27fda01.csv,55bb9ae7fdf99b26d27fda01,post_survey_builder,post_survey_builder,question,yellow,Post-survey builder yellow,,,,,,1174,1175,3916.800000011921,3125521.599999994,,,,,yellow,32,22,6.52,0.5960000000000001,TexturePack/mushroom_pack/images_balanced/yellow-07-0.541--1.png,7,0.541
data_55bb9ae7fdf99b26d27fda01.csv,55bb9ae7fdf99b26d27fda01,post_survey_demographics,post_survey_demographics,question,gender,gender,female,,,,,1175,1176,15787.5,3141309.399999991,,,,,,,,,,,,
data_55bb9ae7fdf99b26d27fda01.csv,55bb9ae7fdf99b26d27fda01,post_survey_demographics,post_survey_demographics,question,age,age,39,,,,,1175,1176,15787.5,3141309.399999991,,,,,,,,,,,,
data_55bb9ae7fdf99b26d27fda01.csv,55bb9ae7fdf99b26d27fda01,post_survey_demographics,post_survey_demographics,question,game_frequency,game_frequency,Sometimes,,,,,1175,1176,15787.5,3141309.399999991,,,,,,,,,,,,
data_55bb9ae7fdf99b26d27fda01.csv,55bb9ae7fdf99b26d27fda01,post_survey_demographics,post_survey_demographics,question,weekly_game_hours_past_month,weekly_game_hours_past_month,3,,,,,1175,1176,15787.5,3141309.399999991,,,,,,,,,,,,
data_55bb9ae7fdf99b26d27fda01.csv,55bb9ae7fdf99b26d27fda01,post_survey_demographics,post_survey_demographics,question,gamer_identity,gamer_identity,Agree,,,,,1175,1176,15787.5,3141309.399999991,,,,,,,,,,,,
data_56514c84715ff50011a43878.csv,56514c84715ff50011a43878,bis_bas_survey,bis_bas_survey,question,item_1,BIS/BAS item 1,3,2,1,,,2116,2117,8531,4771747.399999999,,,,,,,,,,,,
data_56514c84715ff50011a43878.csv,56514c84715ff50011a43878,bis_bas_survey,bis_bas_survey,question,item_2,BIS/BAS item 2,2,2,0,,,2116,2117,8531,4771747.399999999,,,,,,,,,,,,
data_56514c84715ff50011a43878.csv,56514c84715ff50011a43878,bis_bas_survey,bis_bas_survey,question,item_3,BIS/BAS item 3,1,1,0,,,2116,2117,8531,4771747.399999999,,,,,,,,,,,,
data_56514c84715ff50011a43878.csv,56514c84715ff50011a43878,bis_bas_survey,bis_bas_survey,question,item_4,BIS/BAS item 4,1,1,0,,,2116,2117,8531,4771747.399999999,,,,,,,,,,,,
data_56514c84715ff50011a43878.csv,56514c84715ff50011a43878,bis_bas_survey,bis_bas_survey,question,item_5,BIS/BAS item 5,1,1,0,,,2116,2117,8531,4771747.399999999,,,,,,,,,,,,
data_56514c84715ff50011a43878.csv,56514c84715ff50011a43878,bis_bas_survey,bis_bas_survey,question,item_6,BIS/BAS item 6,1,1,0,,,2116,2117,8531,4771747.399999999,,,,,,,,,,,,
data_56514c84715ff50011a43878.csv,56514c84715ff50011a43878,bis_bas_survey,bis_bas_survey,question,item_7,BIS/BAS item 7,2,2,0,,,2116,2117,8531,4771747.399999999,,,,,,,,,,,,
data_56514c84715ff50011a43878.csv,56514c84715ff50011a43878,bis_bas_survey,bis_bas_survey,question,item_8,BIS/BAS item 8,1,1,0,,,2116,2117,8531,4771747.399999999,,,,,,,,,,,,
data_56514c84715ff50011a43878.csv,56514c84715ff50011a43878,bis_bas_survey,bis_bas_survey,question,item_9,BIS/BAS item 9,3,3,0,,,2116,2117,8531,4771747.399999999,,,,,,,,,,,,
data_56514c84715ff50011a43878.csv,56514c84715ff50011a43878,bis_bas_survey,bis_bas_survey,question,item_10,BIS/BAS item 10,4,4,0,,,2116,2117,8531,4771747.399999999,,,,,,,,,,,,
data_56514c84715ff50011a43878.csv,56514c84715ff50011a43878,bis_bas_survey,bis_bas_survey,question,item_11,BIS/BAS item 11,1,1,0,,,2116,2117,8531,4771747.399999999,,,,,,,,,,,,
data_56514c84715ff50011a43878.csv,56514c84715ff50011a43878,bis_bas_survey,bis_bas_survey,question,item_12,BIS/BAS item 12,1,1,0,,,2116,2117,8531,4771747.399999999,,,,,,,,,,,,
data_56514c84715ff50011a43878.csv,56514c84715ff50011a43878,bis_bas_survey,bis_bas_survey,question,item_13,BIS/BAS item 13,2,2,0,,,2116,2117,8531,4771747.399999999,,,,,,,,,,,,
data_56514c84715ff50011a43878.csv,56514c84715ff50011a43878,bis_bas_survey,bis_bas_survey,question,item_14,BIS/BAS item 14,1,1,0,,,2116,2117,8531,4771747.399999999,,,,,,,,,,,,
data_56514c84715ff50011a43878.csv,56514c84715ff50011a43878,bis_bas_survey,bis_bas_survey,question,item_15,BIS/BAS item 15,3,3,0,,,2116,2117,8531,4771747.399999999,,,,,,,,,,,,
data_56514c84715ff50011a43878.csv,56514c84715ff50011a43878,bis_bas_survey,bis_bas_survey,question,item_16,BIS/BAS item 16,1,1,0,,,2116,2117,8531,4771747.399999999,,,,,,,,,,,,
data_56514c84715ff50011a43878.csv,56514c84715ff50011a43878,bis_bas_survey,bis_bas_survey,question,item_17,BIS/BAS item 17,2,2,0,,,2116,2117,8531,4771747.399999999,,,,,,,,,,,,
data_56514c84715ff50011a43878.csv,56514c84715ff50011a43878,bis_bas_survey,bis_bas_survey,question,item_18,BIS/BAS item 18,2,3,1,,,2116,2117,8531,4771747.399999999,,,,,,,,,,,,
data_56514c84715ff50011a43878.csv,56514c84715ff50011a43878,bis_bas_survey,bis_bas_survey,question,item_19,BIS/BAS item 19,3,3,0,,,2116,2117,8531,4771747.399999999,,,,,,,,,,,,
data_56514c84715ff50011a43878.csv,56514c84715ff50011a43878,bis_bas_survey,bis_bas_survey,question,item_20,BIS/BAS item 20,2,2,0,,,2116,2117,8531,4771747.399999999,,,,,,,,,,,,
data_56514c84715ff50011a43878.csv,56514c84715ff50011a43878,bis_bas_survey,bis_bas_survey,score,bisbas_raw_total,bisbas_raw_total,37,,,,,2116,2117,8531,4771747.399999999,,,,,,,,,,,,
data_56514c84715ff50011a43878.csv,56514c84715ff50011a43878,bis_bas_survey,bis_bas_survey,score,bisbas_raw_mean,bisbas_raw_mean,1.85,,,,,2116,2117,8531,4771747.399999999,,,,,,,,,,,,
data_56514c84715ff50011a43878.csv,56514c84715ff50011a43878,bis_bas_survey,bis_bas_survey,score,bisbas_scored_total,bisbas_scored_total,37,,,,,2116,2117,8531,4771747.399999999,,,,,,,,,,,,
data_56514c84715ff50011a43878.csv,56514c84715ff50011a43878,bis_bas_survey,bis_bas_survey,score,bisbas_scored_mean,bisbas_scored_mean,1.85,,,,,2116,2117,8531,4771747.399999999,,,,,,,,,,,,
data_56514c84715ff50011a43878.csv,56514c84715ff50011a43878,bis_bas_survey,bis_bas_survey,score,bis_score_sum,bis_score_sum,17,,,,,2116,2117,8531,4771747.399999999,,,,,,,,,,,,
data_56514c84715ff50011a43878.csv,56514c84715ff50011a43878,bis_bas_survey,bis_bas_survey,score,bis_score_mean,bis_score_mean,2.4285714285714284,,,,,2116,2117,8531,4771747.399999999,,,,,,,,,,,,
data_56514c84715ff50011a43878.csv,56514c84715ff50011a43878,bis_bas_survey,bis_bas_survey,score,bas_drive_sum,bas_drive_sum,9,,,,,2116,2117,8531,4771747.399999999,,,,,,,,,,,,
data_56514c84715ff50011a43878.csv,56514c84715ff50011a43878,bis_bas_survey,bis_bas_survey,score,bas_drive_mean,bas_drive_mean,2.25,,,,,2116,2117,8531,4771747.399999999,,,,,,,,,,,,
data_56514c84715ff50011a43878.csv,56514c84715ff50011a43878,bis_bas_survey,bis_bas_survey,score,bas_fun_seeking_sum,bas_fun_seeking_sum,4,,,,,2116,2117,8531,4771747.399999999,,,,,,,,,,,,
data_56514c84715ff50011a43878.csv,56514c84715ff50011a43878,bis_bas_survey,bis_bas_survey,score,bas_fun_seeking_mean,bas_fun_seeking_mean,1,,,,,2116,2117,8531,4771747.399999999,,,,,,,,,,,,
data_56514c84715ff50011a43878.csv,56514c84715ff50011a43878,bis_bas_survey,bis_bas_survey,score,bas_reward_responsiveness_sum,bas_reward_responsiveness_sum,7,,,,,2116,2117,8531,4771747.399999999,,,,,,,,,,,,
data_56514c84715ff50011a43878.csv,56514c84715ff50011a43878,bis_bas_survey,bis_bas_survey,score,bas_reward_responsiveness_mean,bas_reward_responsiveness_mean,1.4,,,,,2116,2117,8531,4771747.399999999,,,,,,,,,,,,
data_56514c84715ff50011a43878.csv,56514c84715ff50011a43878,bis_bas_survey,bis_bas_survey,score,bas_total_sum,bas_total_sum,20,,,,,2116,2117,8531,4771747.399999999,,,,,,,,,,,,
data_56514c84715ff50011a43878.csv,56514c84715ff50011a43878,bis_bas_survey,bis_bas_survey,score,bas_total_mean,bas_total_mean,1.5384615384615385,,,,,2116,2117,8531,4771747.399999999,,,,,,,,,,,,
data_56514c84715ff50011a43878.csv,56514c84715ff50011a43878,color_blind_survey,color_blind_survey_plate,question,ishihara_1,Practice,12,true,,12,false,,2120,5743,,1,ishihara_1,Practice,TexturePack/colorblind/500px-Ishihara_1.svg.png,,,,,,,,
data_56514c84715ff50011a43878.csv,56514c84715ff50011a43878,color_blind_survey,color_blind_survey_plate,question,ishihara_9,Plate 1,74,true,,74,true,,2121,8677,,2,ishihara_9,Plate 1,TexturePack/colorblind/500px-Ishihara_9.svg.png,,,,,,,,
data_56514c84715ff50011a43878.csv,56514c84715ff50011a43878,color_blind_survey,color_blind_survey_plate,question,ishihara_11,Plate 2,6,true,,6,true,,2122,4407,,3,ishihara_11,Plate 2,TexturePack/colorblind/500px-Ishihara_11.PNG,,,,,,,,
data_56514c84715ff50011a43878.csv,56514c84715ff50011a43878,color_blind_survey,color_blind_survey_plate,question,ishihara_23,Plate 3,42,true,,42,true,,2123,3599,,4,ishihara_23,Plate 3,TexturePack/colorblind/500px-Ishihara_23.PNG,,,,,,,,
data_56514c84715ff50011a43878.csv,56514c84715ff50011a43878,color_blind_survey,color_blind_survey_summary,score,n_items_total,n_items_total,4,,,,,,2124,,,,,,,,,,,,,,
data_56514c84715ff50011a43878.csv,56514c84715ff50011a43878,color_blind_survey,color_blind_survey_summary,score,n_items_scored,n_items_scored,3,,,,,,2124,,,,,,,,,,,,,,
data_56514c84715ff50011a43878.csv,56514c84715ff50011a43878,color_blind_survey,color_blind_survey_summary,score,n_correct_scored,n_correct_scored,3,,,,,,2124,,,,,,,,,,,,,,
data_56514c84715ff50011a43878.csv,56514c84715ff50011a43878,color_blind_survey,color_blind_survey_summary,score,accuracy_scored,accuracy_scored,1,,,,,,2124,,,,,,,,,,,,,,
data_56514c84715ff50011a43878.csv,56514c84715ff50011a43878,color_blind_survey,color_blind_survey_summary,score,passed_all_scored,passed_all_scored,true,,,,,,2124,,,,,,,,,,,,,,
data_56514c84715ff50011a43878.csv,56514c84715ff50011a43878,five_dcr_survey,five_dcr_survey,question,q1,5DCR question 1,5,5,0,,,,2119,58804,,,,,,,,,,,,,
data_56514c84715ff50011a43878.csv,56514c84715ff50011a43878,five_dcr_survey,five_dcr_survey,question,q2,5DCR question 2,2,2,0,,,,2119,58804,,,,,,,,,,,,,
data_56514c84715ff50011a43878.csv,56514c84715ff50011a43878,five_dcr_survey,five_dcr_survey,question,q3,5DCR question 3,6,6,0,,,,2119,58804,,,,,,,,,,,,,
data_56514c84715ff50011a43878.csv,56514c84715ff50011a43878,five_dcr_survey,five_dcr_survey,question,q4,5DCR question 4,6,6,0,,,,2119,58804,,,,,,,,,,,,,
data_56514c84715ff50011a43878.csv,56514c84715ff50011a43878,five_dcr_survey,five_dcr_survey,question,q5,5DCR question 5,2,2,0,,,,2119,58804,,,,,,,,,,,,,
data_56514c84715ff50011a43878.csv,56514c84715ff50011a43878,five_dcr_survey,five_dcr_survey,question,q6,5DCR question 6,3,3,0,,,,2119,58804,,,,,,,,,,,,,
data_56514c84715ff50011a43878.csv,56514c84715ff50011a43878,five_dcr_survey,five_dcr_survey,question,q7,5DCR question 7,4,4,0,,,,2119,58804,,,,,,,,,,,,,
data_56514c84715ff50011a43878.csv,56514c84715ff50011a43878,five_dcr_survey,five_dcr_survey,question,q8,5DCR question 8,5,5,0,,,,2119,58804,,,,,,,,,,,,,
data_56514c84715ff50011a43878.csv,56514c84715ff50011a43878,five_dcr_survey,five_dcr_survey,question,q9,5DCR question 9,3,5,1,,,,2119,58804,,,,,,,,,,,,,
data_56514c84715ff50011a43878.csv,56514c84715ff50011a43878,five_dcr_survey,five_dcr_survey,question,q10,5DCR question 10,2,6,1,,,,2119,58804,,,,,,,,,,,,,
data_56514c84715ff50011a43878.csv,56514c84715ff50011a43878,five_dcr_survey,five_dcr_survey,question,q11,5DCR question 11,2,6,1,,,,2119,58804,,,,,,,,,,,,,
data_56514c84715ff50011a43878.csv,56514c84715ff50011a43878,five_dcr_survey,five_dcr_survey,question,q12,5DCR question 12,4,4,1,,,,2119,58804,,,,,,,,,,,,,
data_56514c84715ff50011a43878.csv,56514c84715ff50011a43878,five_dcr_survey,five_dcr_survey,question,q13,5DCR question 13,5,5,0,,,,2119,58804,,,,,,,,,,,,,
data_56514c84715ff50011a43878.csv,56514c84715ff50011a43878,five_dcr_survey,five_dcr_survey,question,q14,5DCR question 14,3,3,0,,,,2119,58804,,,,,,,,,,,,,
data_56514c84715ff50011a43878.csv,56514c84715ff50011a43878,five_dcr_survey,five_dcr_survey,question,q15,5DCR question 15,7,7,0,,,,2119,58804,,,,,,,,,,,,,
data_56514c84715ff50011a43878.csv,56514c84715ff50011a43878,five_dcr_survey,five_dcr_survey,question,q16,5DCR question 16,7,7,0,,,,2119,58804,,,,,,,,,,,,,
data_56514c84715ff50011a43878.csv,56514c84715ff50011a43878,five_dcr_survey,five_dcr_survey,question,q17,5DCR question 17,5,5,0,,,,2119,58804,,,,,,,,,,,,,
data_56514c84715ff50011a43878.csv,56514c84715ff50011a43878,five_dcr_survey,five_dcr_survey,question,q18,5DCR question 18,6,6,0,,,,2119,58804,,,,,,,,,,,,,
data_56514c84715ff50011a43878.csv,56514c84715ff50011a43878,five_dcr_survey,five_dcr_survey,question,q19,5DCR question 19,6,6,0,,,,2119,58804,,,,,,,,,,,,,
data_56514c84715ff50011a43878.csv,56514c84715ff50011a43878,five_dcr_survey,five_dcr_survey,question,q20,5DCR question 20,7,7,0,,,,2119,58804,,,,,,,,,,,,,
data_56514c84715ff50011a43878.csv,56514c84715ff50011a43878,five_dcr_survey,five_dcr_survey,question,q21,5DCR question 21,3,3,0,,,,2119,58804,,,,,,,,,,,,,
data_56514c84715ff50011a43878.csv,56514c84715ff50011a43878,five_dcr_survey,five_dcr_survey,question,q22,5DCR question 22,4,4,0,,,,2119,58804,,,,,,,,,,,,,
data_56514c84715ff50011a43878.csv,56514c84715ff50011a43878,five_dcr_survey,five_dcr_survey,question,q23,5DCR question 23,4,4,0,,,,2119,58804,,,,,,,,,,,,,
data_56514c84715ff50011a43878.csv,56514c84715ff50011a43878,five_dcr_survey,five_dcr_survey,question,q24,5DCR question 24,3,3,0,,,,2119,58804,,,,,,,,,,,,,
data_56514c84715ff50011a43878.csv,56514c84715ff50011a43878,five_dcr_survey,five_dcr_survey,score,joyous_exploration_avg,joyous_exploration_avg,4.75,,,,,,2119,58804,,,,,,,,,,,,,
data_56514c84715ff50011a43878.csv,56514c84715ff50011a43878,five_dcr_survey,five_dcr_survey,score,deprivation_sensitivity_avg,deprivation_sensitivity_avg,3.5,,,,,,2119,58804,,,,,,,,,,,,,
data_56514c84715ff50011a43878.csv,56514c84715ff50011a43878,five_dcr_survey,five_dcr_survey,score,stress_tolerance_avg,stress_tolerance_avg,5.25,,,,,,2119,58804,,,,,,,,,,,,,
data_56514c84715ff50011a43878.csv,56514c84715ff50011a43878,five_dcr_survey,five_dcr_survey,score,thrill_seeking_avg,thrill_seeking_avg,5.5,,,,,,2119,58804,,,,,,,,,,,,,
data_56514c84715ff50011a43878.csv,56514c84715ff50011a43878,five_dcr_survey,five_dcr_survey,score,general_social_curiosity_avg,general_social_curiosity_avg,6,,,,,,2119,58804,,,,,,,,,,,,,
data_56514c84715ff50011a43878.csv,56514c84715ff50011a43878,five_dcr_survey,five_dcr_survey,score,covert_social_curiosity_avg,covert_social_curiosity_avg,3.5,,,,,,2119,58804,,,,,,,,,,,,,
data_56514c84715ff50011a43878.csv,56514c84715ff50011a43878,need_for_cognition_survey,need_for_cognition_survey,question,item_1,NFC item 1,1,1,0,,,2117,2118,20502.400000000373,4816622.100000001,,,,,,,,,,,,
data_56514c84715ff50011a43878.csv,56514c84715ff50011a43878,need_for_cognition_survey,need_for_cognition_survey,question,item_2,NFC item 2,1,1,0,,,2117,2118,20502.400000000373,4816622.100000001,,,,,,,,,,,,
data_56514c84715ff50011a43878.csv,56514c84715ff50011a43878,need_for_cognition_survey,need_for_cognition_survey,question,item_3,NFC item 3,5,1,1,,,2117,2118,20502.400000000373,4816622.100000001,,,,,,,,,,,,
data_56514c84715ff50011a43878.csv,56514c84715ff50011a43878,need_for_cognition_survey,need_for_cognition_survey,question,item_4,NFC item 4,5,1,1,,,2117,2118,20502.400000000373,4816622.100000001,,,,,,,,,,,,
data_56514c84715ff50011a43878.csv,56514c84715ff50011a43878,need_for_cognition_survey,need_for_cognition_survey,question,item_5,NFC item 5,5,1,1,,,2117,2118,20502.400000000373,4816622.100000001,,,,,,,,,,,,
data_56514c84715ff50011a43878.csv,56514c84715ff50011a43878,need_for_cognition_survey,need_for_cognition_survey,question,item_6,NFC item 6,1,1,0,,,2117,2118,20502.400000000373,4816622.100000001,,,,,,,,,,,,
data_56514c84715ff50011a43878.csv,56514c84715ff50011a43878,need_for_cognition_survey,need_for_cognition_survey,question,item_7,NFC item 7,5,1,1,,,2117,2118,20502.400000000373,4816622.100000001,,,,,,,,,,,,
data_56514c84715ff50011a43878.csv,56514c84715ff50011a43878,need_for_cognition_survey,need_for_cognition_survey,question,item_8,NFC item 8,5,1,1,,,2117,2118,20502.400000000373,4816622.100000001,,,,,,,,,,,,
data_56514c84715ff50011a43878.csv,56514c84715ff50011a43878,need_for_cognition_survey,need_for_cognition_survey,question,item_9,NFC item 9,5,1,1,,,2117,2118,20502.400000000373,4816622.100000001,,,,,,,,,,,,
data_56514c84715ff50011a43878.csv,56514c84715ff50011a43878,need_for_cognition_survey,need_for_cognition_survey,question,item_10,NFC item 10,1,1,0,,,2117,2118,20502.400000000373,4816622.100000001,,,,,,,,,,,,
data_56514c84715ff50011a43878.csv,56514c84715ff50011a43878,need_for_cognition_survey,need_for_cognition_survey,question,item_11,NFC item 11,1,1,0,,,2117,2118,20502.400000000373,4816622.100000001,,,,,,,,,,,,
data_56514c84715ff50011a43878.csv,56514c84715ff50011a43878,need_for_cognition_survey,need_for_cognition_survey,question,item_12,NFC item 12,4,2,1,,,2117,2118,20502.400000000373,4816622.100000001,,,,,,,,,,,,
data_56514c84715ff50011a43878.csv,56514c84715ff50011a43878,need_for_cognition_survey,need_for_cognition_survey,question,item_13,NFC item 13,1,1,0,,,2117,2118,20502.400000000373,4816622.100000001,,,,,,,,,,,,
data_56514c84715ff50011a43878.csv,56514c84715ff50011a43878,need_for_cognition_survey,need_for_cognition_survey,question,item_14,NFC item 14,3,3,0,,,2117,2118,20502.400000000373,4816622.100000001,,,,,,,,,,,,
data_56514c84715ff50011a43878.csv,56514c84715ff50011a43878,need_for_cognition_survey,need_for_cognition_survey,question,item_15,NFC item 15,1,1,0,,,2117,2118,20502.400000000373,4816622.100000001,,,,,,,,,,,,
data_56514c84715ff50011a43878.csv,56514c84715ff50011a43878,need_for_cognition_survey,need_for_cognition_survey,question,item_16,NFC item 16,4,2,1,,,2117,2118,20502.400000000373,4816622.100000001,,,,,,,,,,,,
data_56514c84715ff50011a43878.csv,56514c84715ff50011a43878,need_for_cognition_survey,need_for_cognition_survey,question,item_17,NFC item 17,4,2,1,,,2117,2118,20502.400000000373,4816622.100000001,,,,,,,,,,,,
data_56514c84715ff50011a43878.csv,56514c84715ff50011a43878,need_for_cognition_survey,need_for_cognition_survey,question,item_18,NFC item 18,3,3,0,,,2117,2118,20502.400000000373,4816622.100000001,,,,,,,,,,,,
data_56514c84715ff50011a43878.csv,56514c84715ff50011a43878,need_for_cognition_survey,need_for_cognition_survey,score,nfc_raw_total,nfc_raw_total,55,,,,,2117,2118,20502.400000000373,4816622.100000001,,,,,,,,,,,,
data_56514c84715ff50011a43878.csv,56514c84715ff50011a43878,need_for_cognition_survey,need_for_cognition_survey,score,nfc_raw_mean,nfc_raw_mean,3.0555555555555554,,,,,2117,2118,20502.400000000373,4816622.100000001,,,,,,,,,,,,
data_56514c84715ff50011a43878.csv,56514c84715ff50011a43878,need_for_cognition_survey,need_for_cognition_survey,score,nfc_scored_total,nfc_scored_total,25,,,,,2117,2118,20502.400000000373,4816622.100000001,,,,,,,,,,,,
data_56514c84715ff50011a43878.csv,56514c84715ff50011a43878,need_for_cognition_survey,need_for_cognition_survey,score,nfc_scored_mean,nfc_scored_mean,1.3888888888888888,,,,,2117,2118,20502.400000000373,4816622.100000001,,,,,,,,,,,,
data_56514c84715ff50011a43878.csv,56514c84715ff50011a43878,post_survey,post_survey,question,enjoyment,enjoyment,7,,,,,2133,2134,,5107881.499999999,,,,,,,,,,,,
data_56514c84715ff50011a43878.csv,56514c84715ff50011a43878,post_survey,post_survey,question,difficulty,difficulty,6,,,,,2133,2134,,5107881.499999999,,,,,,,,,,,,
data_56514c84715ff50011a43878.csv,56514c84715ff50011a43878,post_survey,post_survey,question,strategy,strategy,This was so hard! It would be more helpful if we could see all the shapes or something before starting. Some shapes felt very similar to one another.,,,,,2133,2134,,5107881.499999999,,,,,,,,,,,,
data_56514c84715ff50011a43878.csv,56514c84715ff50011a43878,post_survey,post_survey,question,color_rank_most_to_least,color_rank_most_to_least,red>cyan>black>green>magenta>yellow>white>blue,,,,,2133,2134,,5107881.499999999,,,,,,,,,,,,
data_56514c84715ff50011a43878.csv,56514c84715ff50011a43878,post_survey,post_survey,question,room_rank_easiest_to_hardest,room_rank_easiest_to_hardest,cave>forest>ocean>lava>desert,,,,,2133,2134,,5107881.499999999,,,,,,,,,,,,
data_56514c84715ff50011a43878.csv,56514c84715ff50011a43878,post_survey,post_survey,question,builder_color_order,builder_color_order,black>white>red>green>blue>cyan>magenta>yellow,,,,,2133,2134,,5107881.499999999,,,,,,,,,,,,
data_56514c84715ff50011a43878.csv,56514c84715ff50011a43878,post_survey_builder,post_survey_builder,question,black,Post-survey builder black,,,,,,2124,2125,23912.300000000745,4922525.7,,,,,black,86,5,12.459999999999999,0.29000000000000004,TexturePack/mushroom_pack/images_balanced/black-12-0.225-+4.png,12,0.225
data_56514c84715ff50011a43878.csv,56514c84715ff50011a43878,post_survey_builder,post_survey_builder,question,white,Post-survey builder white,,,,,,2125,2126,13620,4936150.399999999,,,,,white,100,83,14,1.694,TexturePack/mushroom_pack/images_balanced/white-14-1.663-+2.png,14,1.663
data_56514c84715ff50011a43878.csv,56514c84715ff50011a43878,post_survey_builder,post_survey_builder,question,red,Post-survey builder red,,,,,,2126,2127,8658.5,4944810.2,,,,,red,98,90,13.78,1.82,TexturePack/mushroom_pack/images_balanced/red-14-1.811-+10.png,14,1.811
data_56514c84715ff50011a43878.csv,56514c84715ff50011a43878,post_survey_builder,post_survey_builder,question,green,Post-survey builder green,,,,,,2127,2128,19831.800000000745,4964642.8,,,,,green,90,74,12.9,1.532,TexturePack/mushroom_pack/images_balanced/green-13-1.332--1.png,13,1.332
data_56514c84715ff50011a43878.csv,56514c84715ff50011a43878,post_survey_builder,post_survey_builder,question,blue,Post-survey builder blue,,,,,,2128,2129,12176.199999999255,4976820.499999999,,,,,blue,79,0,11.690000000000001,0.2,TexturePack/mushroom_pack/images_balanced/blue-12-0.253-+2.png,12,0.253
data_56514c84715ff50011a43878.csv,56514c84715ff50011a43878,post_survey_builder,post_survey_builder,question,cyan,Post-survey builder cyan,,,,,,2129,2130,10641.299999998882,4987462.600000001,,,,,cyan,93,61,13.23,1.298,TexturePack/mushroom_pack/images_balanced/cyan-13-1.463-+2.png,13,1.463
data_56514c84715ff50011a43878.csv,56514c84715ff50011a43878,post_survey_builder,post_survey_builder,question,magenta,Post-survey builder magenta,,,,,,2130,2131,10740.5,4998203.600000001,,,,,magenta,10,6,4.1,0.308,TexturePack/mushroom_pack/images_balanced/magenta-04-0.313--2.png,4,0.313
data_56514c84715ff50011a43878.csv,56514c84715ff50011a43878,post_survey_builder,post_survey_builder,question,yellow,Post-survey builder yellow,,,,,,2131,2132,11363.5,5009567.8,,,,,yellow,89,11,12.790000000000001,0.398,TexturePack/mushroom_pack/images_balanced/yellow-13-0.410--4.png,13,0.41
data_56514c84715ff50011a43878.csv,56514c84715ff50011a43878,post_survey_demographics,post_survey_demographics,question,gender,gender,female,,,,,2132,2133,13421.700000001118,5022990.100000001,,,,,,,,,,,,
data_56514c84715ff50011a43878.csv,56514c84715ff50011a43878,post_survey_demographics,post_survey_demographics,question,age,age,39,,,,,2132,2133,13421.700000001118,5022990.100000001,,,,,,,,,,,,
data_56514c84715ff50011a43878.csv,56514c84715ff50011a43878,post_survey_demographics,post_survey_demographics,question,game_frequency,game_frequency,Sometimes,,,,,2132,2133,13421.700000001118,5022990.100000001,,,,,,,,,,,,
data_56514c84715ff50011a43878.csv,56514c84715ff50011a43878,post_survey_demographics,post_survey_demographics,question,weekly_game_hours_past_month,weekly_game_hours_past_month,1,,,,,2132,2133,13421.700000001118,5022990.100000001,,,,,,,,,,,,
data_56514c84715ff50011a43878.csv,56514c84715ff50011a43878,post_survey_demographics,post_survey_demographics,question,gamer_identity,gamer_identity,Strongly disagree,,,,,2132,2133,13421.700000001118,5022990.100000001,,,,,,,,,,,,
data_5cb9ca6814b3cb0017e4f7dd.csv,5cb9ca6814b3cb0017e4f7dd,bis_bas_survey,bis_bas_survey,question,item_1,BIS/BAS item 1,2,3,1,,,1420,1421,8337.099999904633,2747979.5,,,,,,,,,,,,
data_5cb9ca6814b3cb0017e4f7dd.csv,5cb9ca6814b3cb0017e4f7dd,bis_bas_survey,bis_bas_survey,question,item_2,BIS/BAS item 2,1,1,0,,,1420,1421,8337.099999904633,2747979.5,,,,,,,,,,,,
data_5cb9ca6814b3cb0017e4f7dd.csv,5cb9ca6814b3cb0017e4f7dd,bis_bas_survey,bis_bas_survey,question,item_3,BIS/BAS item 3,1,1,0,,,1420,1421,8337.099999904633,2747979.5,,,,,,,,,,,,
data_5cb9ca6814b3cb0017e4f7dd.csv,5cb9ca6814b3cb0017e4f7dd,bis_bas_survey,bis_bas_survey,question,item_4,BIS/BAS item 4,1,1,0,,,1420,1421,8337.099999904633,2747979.5,,,,,,,,,,,,
data_5cb9ca6814b3cb0017e4f7dd.csv,5cb9ca6814b3cb0017e4f7dd,bis_bas_survey,bis_bas_survey,question,item_5,BIS/BAS item 5,1,1,0,,,1420,1421,8337.099999904633,2747979.5,,,,,,,,,,,,
data_5cb9ca6814b3cb0017e4f7dd.csv,5cb9ca6814b3cb0017e4f7dd,bis_bas_survey,bis_bas_survey,question,item_6,BIS/BAS item 6,3,3,0,,,1420,1421,8337.099999904633,2747979.5,,,,,,,,,,,,
data_5cb9ca6814b3cb0017e4f7dd.csv,5cb9ca6814b3cb0017e4f7dd,bis_bas_survey,bis_bas_survey,question,item_7,BIS/BAS item 7,3,3,0,,,1420,1421,8337.099999904633,2747979.5,,,,,,,,,,,,
data_5cb9ca6814b3cb0017e4f7dd.csv,5cb9ca6814b3cb0017e4f7dd,bis_bas_survey,bis_bas_survey,question,item_8,BIS/BAS item 8,2,2,0,,,1420,1421,8337.099999904633,2747979.5,,,,,,,,,,,,
data_5cb9ca6814b3cb0017e4f7dd.csv,5cb9ca6814b3cb0017e4f7dd,bis_bas_survey,bis_bas_survey,question,item_9,BIS/BAS item 9,2,2,0,,,1420,1421,8337.099999904633,2747979.5,,,,,,,,,,,,
data_5cb9ca6814b3cb0017e4f7dd.csv,5cb9ca6814b3cb0017e4f7dd,bis_bas_survey,bis_bas_survey,question,item_10,BIS/BAS item 10,2,2,0,,,1420,1421,8337.099999904633,2747979.5,,,,,,,,,,,,
data_5cb9ca6814b3cb0017e4f7dd.csv,5cb9ca6814b3cb0017e4f7dd,bis_bas_survey,bis_bas_survey,question,item_11,BIS/BAS item 11,2,2,0,,,1420,1421,8337.099999904633,2747979.5,,,,,,,,,,,,
data_5cb9ca6814b3cb0017e4f7dd.csv,5cb9ca6814b3cb0017e4f7dd,bis_bas_survey,bis_bas_survey,question,item_12,BIS/BAS item 12,4,4,0,,,1420,1421,8337.099999904633,2747979.5,,,,,,,,,,,,
data_5cb9ca6814b3cb0017e4f7dd.csv,5cb9ca6814b3cb0017e4f7dd,bis_bas_survey,bis_bas_survey,question,item_13,BIS/BAS item 13,3,3,0,,,1420,1421,8337.099999904633,2747979.5,,,,,,,,,,,,
data_5cb9ca6814b3cb0017e4f7dd.csv,5cb9ca6814b3cb0017e4f7dd,bis_bas_survey,bis_bas_survey,question,item_14,BIS/BAS item 14,3,3,0,,,1420,1421,8337.099999904633,2747979.5,,,,,,,,,,,,
data_5cb9ca6814b3cb0017e4f7dd.csv,5cb9ca6814b3cb0017e4f7dd,bis_bas_survey,bis_bas_survey,question,item_15,BIS/BAS item 15,3,3,0,,,1420,1421,8337.099999904633,2747979.5,,,,,,,,,,,,
data_5cb9ca6814b3cb0017e4f7dd.csv,5cb9ca6814b3cb0017e4f7dd,bis_bas_survey,bis_bas_survey,question,item_16,BIS/BAS item 16,3,3,0,,,1420,1421,8337.099999904633,2747979.5,,,,,,,,,,,,
data_5cb9ca6814b3cb0017e4f7dd.csv,5cb9ca6814b3cb0017e4f7dd,bis_bas_survey,bis_bas_survey,question,item_17,BIS/BAS item 17,4,4,0,,,1420,1421,8337.099999904633,2747979.5,,,,,,,,,,,,
data_5cb9ca6814b3cb0017e4f7dd.csv,5cb9ca6814b3cb0017e4f7dd,bis_bas_survey,bis_bas_survey,question,item_18,BIS/BAS item 18,3,2,1,,,1420,1421,8337.099999904633,2747979.5,,,,,,,,,,,,
data_5cb9ca6814b3cb0017e4f7dd.csv,5cb9ca6814b3cb0017e4f7dd,bis_bas_survey,bis_bas_survey,question,item_19,BIS/BAS item 19,1,1,0,,,1420,1421,8337.099999904633,2747979.5,,,,,,,,,,,,
data_5cb9ca6814b3cb0017e4f7dd.csv,5cb9ca6814b3cb0017e4f7dd,bis_bas_survey,bis_bas_survey,question,item_20,BIS/BAS item 20,3,3,0,,,1420,1421,8337.099999904633,2747979.5,,,,,,,,,,,,
data_5cb9ca6814b3cb0017e4f7dd.csv,5cb9ca6814b3cb0017e4f7dd,bis_bas_survey,bis_bas_survey,score,bisbas_raw_total,bisbas_raw_total,47,,,,,1420,1421,8337.099999904633,2747979.5,,,,,,,,,,,,
data_5cb9ca6814b3cb0017e4f7dd.csv,5cb9ca6814b3cb0017e4f7dd,bis_bas_survey,bis_bas_survey,score,bisbas_raw_mean,bisbas_raw_mean,2.35,,,,,1420,1421,8337.099999904633,2747979.5,,,,,,,,,,,,
data_5cb9ca6814b3cb0017e4f7dd.csv,5cb9ca6814b3cb0017e4f7dd,bis_bas_survey,bis_bas_survey,score,bisbas_scored_total,bisbas_scored_total,47,,,,,1420,1421,8337.099999904633,2747979.5,,,,,,,,,,,,
data_5cb9ca6814b3cb0017e4f7dd.csv,5cb9ca6814b3cb0017e4f7dd,bis_bas_survey,bis_bas_survey,score,bisbas_scored_mean,bisbas_scored_mean,2.35,,,,,1420,1421,8337.099999904633,2747979.5,,,,,,,,,,,,
data_5cb9ca6814b3cb0017e4f7dd.csv,5cb9ca6814b3cb0017e4f7dd,bis_bas_survey,bis_bas_survey,score,bis_score_sum,bis_score_sum,19,,,,,1420,1421,8337.099999904633,2747979.5,,,,,,,,,,,,
data_5cb9ca6814b3cb0017e4f7dd.csv,5cb9ca6814b3cb0017e4f7dd,bis_bas_survey,bis_bas_survey,score,bis_score_mean,bis_score_mean,2.7142857142857144,,,,,1420,1421,8337.099999904633,2747979.5,,,,,,,,,,,,
data_5cb9ca6814b3cb0017e4f7dd.csv,5cb9ca6814b3cb0017e4f7dd,bis_bas_survey,bis_bas_survey,score,bas_drive_sum,bas_drive_sum,10,,,,,1420,1421,8337.099999904633,2747979.5,,,,,,,,,,,,
data_5cb9ca6814b3cb0017e4f7dd.csv,5cb9ca6814b3cb0017e4f7dd,bis_bas_survey,bis_bas_survey,score,bas_drive_mean,bas_drive_mean,2.5,,,,,1420,1421,8337.099999904633,2747979.5,,,,,,,,,,,,
data_5cb9ca6814b3cb0017e4f7dd.csv,5cb9ca6814b3cb0017e4f7dd,bis_bas_survey,bis_bas_survey,score,bas_fun_seeking_sum,bas_fun_seeking_sum,10,,,,,1420,1421,8337.099999904633,2747979.5,,,,,,,,,,,,
data_5cb9ca6814b3cb0017e4f7dd.csv,5cb9ca6814b3cb0017e4f7dd,bis_bas_survey,bis_bas_survey,score,bas_fun_seeking_mean,bas_fun_seeking_mean,2.5,,,,,1420,1421,8337.099999904633,2747979.5,,,,,,,,,,,,
data_5cb9ca6814b3cb0017e4f7dd.csv,5cb9ca6814b3cb0017e4f7dd,bis_bas_survey,bis_bas_survey,score,bas_reward_responsiveness_sum,bas_reward_responsiveness_sum,8,,,,,1420,1421,8337.099999904633,2747979.5,,,,,,,,,,,,
data_5cb9ca6814b3cb0017e4f7dd.csv,5cb9ca6814b3cb0017e4f7dd,bis_bas_survey,bis_bas_survey,score,bas_reward_responsiveness_mean,bas_reward_responsiveness_mean,1.6,,,,,1420,1421,8337.099999904633,2747979.5,,,,,,,,,,,,
data_5cb9ca6814b3cb0017e4f7dd.csv,5cb9ca6814b3cb0017e4f7dd,bis_bas_survey,bis_bas_survey,score,bas_total_sum,bas_total_sum,28,,,,,1420,1421,8337.099999904633,2747979.5,,,,,,,,,,,,
data_5cb9ca6814b3cb0017e4f7dd.csv,5cb9ca6814b3cb0017e4f7dd,bis_bas_survey,bis_bas_survey,score,bas_total_mean,bas_total_mean,2.1538461538461537,,,,,1420,1421,8337.099999904633,2747979.5,,,,,,,,,,,,
data_5cb9ca6814b3cb0017e4f7dd.csv,5cb9ca6814b3cb0017e4f7dd,color_blind_survey,color_blind_survey_plate,question,ishihara_1,Practice,12,true,,12,false,,1424,4677,,1,ishihara_1,Practice,TexturePack/colorblind/500px-Ishihara_1.svg.png,,,,,,,,
data_5cb9ca6814b3cb0017e4f7dd.csv,5cb9ca6814b3cb0017e4f7dd,color_blind_survey,color_blind_survey_plate,question,ishihara_9,Plate 1,74,true,,74,true,,1425,9413,,2,ishihara_9,Plate 1,TexturePack/colorblind/500px-Ishihara_9.svg.png,,,,,,,,
data_5cb9ca6814b3cb0017e4f7dd.csv,5cb9ca6814b3cb0017e4f7dd,color_blind_survey,color_blind_survey_plate,question,ishihara_11,Plate 2,6,true,,6,true,,1426,9481,,3,ishihara_11,Plate 2,TexturePack/colorblind/500px-Ishihara_11.PNG,,,,,,,,
data_5cb9ca6814b3cb0017e4f7dd.csv,5cb9ca6814b3cb0017e4f7dd,color_blind_survey,color_blind_survey_plate,question,ishihara_23,Plate 3,42,true,,42,true,,1427,4164,,4,ishihara_23,Plate 3,TexturePack/colorblind/500px-Ishihara_23.PNG,,,,,,,,
data_5cb9ca6814b3cb0017e4f7dd.csv,5cb9ca6814b3cb0017e4f7dd,color_blind_survey,color_blind_survey_summary,score,n_items_total,n_items_total,4,,,,,,1428,,,,,,,,,,,,,,
data_5cb9ca6814b3cb0017e4f7dd.csv,5cb9ca6814b3cb0017e4f7dd,color_blind_survey,color_blind_survey_summary,score,n_items_scored,n_items_scored,3,,,,,,1428,,,,,,,,,,,,,,
data_5cb9ca6814b3cb0017e4f7dd.csv,5cb9ca6814b3cb0017e4f7dd,color_blind_survey,color_blind_survey_summary,score,n_correct_scored,n_correct_scored,3,,,,,,1428,,,,,,,,,,,,,,
data_5cb9ca6814b3cb0017e4f7dd.csv,5cb9ca6814b3cb0017e4f7dd,color_blind_survey,color_blind_survey_summary,score,accuracy_scored,accuracy_scored,1,,,,,,1428,,,,,,,,,,,,,,
data_5cb9ca6814b3cb0017e4f7dd.csv,5cb9ca6814b3cb0017e4f7dd,color_blind_survey,color_blind_survey_summary,score,passed_all_scored,passed_all_scored,true,,,,,,1428,,,,,,,,,,,,,,
data_5cb9ca6814b3cb0017e4f7dd.csv,5cb9ca6814b3cb0017e4f7dd,five_dcr_survey,five_dcr_survey,question,q1,5DCR question 1,6,6,0,,,,1423,60902,,,,,,,,,,,,,
data_5cb9ca6814b3cb0017e4f7dd.csv,5cb9ca6814b3cb0017e4f7dd,five_dcr_survey,five_dcr_survey,question,q2,5DCR question 2,7,7,0,,,,1423,60902,,,,,,,,,,,,,
data_5cb9ca6814b3cb0017e4f7dd.csv,5cb9ca6814b3cb0017e4f7dd,five_dcr_survey,five_dcr_survey,question,q3,5DCR question 3,7,7,0,,,,1423,60902,,,,,,,,,,,,,
data_5cb9ca6814b3cb0017e4f7dd.csv,5cb9ca6814b3cb0017e4f7dd,five_dcr_survey,five_dcr_survey,question,q4,5DCR question 4,7,7,0,,,,1423,60902,,,,,,,,,,,,,
data_5cb9ca6814b3cb0017e4f7dd.csv,5cb9ca6814b3cb0017e4f7dd,five_dcr_survey,five_dcr_survey,question,q5,5DCR question 5,5,5,0,,,,1423,60902,,,,,,,,,,,,,
data_5cb9ca6814b3cb0017e4f7dd.csv,5cb9ca6814b3cb0017e4f7dd,five_dcr_survey,five_dcr_survey,question,q6,5DCR question 6,2,2,0,,,,1423,60902,,,,,,,,,,,,,
data_5cb9ca6814b3cb0017e4f7dd.csv,5cb9ca6814b3cb0017e4f7dd,five_dcr_survey,five_dcr_survey,question,q7,5DCR question 7,6,6,0,,,,1423,60902,,,,,,,,,,,,,
data_5cb9ca6814b3cb0017e4f7dd.csv,5cb9ca6814b3cb0017e4f7dd,five_dcr_survey,five_dcr_survey,question,q8,5DCR question 8,6,6,0,,,,1423,60902,,,,,,,,,,,,,
data_5cb9ca6814b3cb0017e4f7dd.csv,5cb9ca6814b3cb0017e4f7dd,five_dcr_survey,five_dcr_survey,question,q9,5DCR question 9,1,7,1,,,,1423,60902,,,,,,,,,,,,,
data_5cb9ca6814b3cb0017e4f7dd.csv,5cb9ca6814b3cb0017e4f7dd,five_dcr_survey,five_dcr_survey,question,q10,5DCR question 10,6,2,1,,,,1423,60902,,,,,,,,,,,,,
data_5cb9ca6814b3cb0017e4f7dd.csv,5cb9ca6814b3cb0017e4f7dd,five_dcr_survey,five_dcr_survey,question,q11,5DCR question 11,2,6,1,,,,1423,60902,,,,,,,,,,,,,
data_5cb9ca6814b3cb0017e4f7dd.csv,5cb9ca6814b3cb0017e4f7dd,five_dcr_survey,five_dcr_survey,question,q12,5DCR question 12,2,6,1,,,,1423,60902,,,,,,,,,,,,,
data_5cb9ca6814b3cb0017e4f7dd.csv,5cb9ca6814b3cb0017e4f7dd,five_dcr_survey,five_dcr_survey,question,q13,5DCR question 13,2,2,0,,,,1423,60902,,,,,,,,,,,,,
data_5cb9ca6814b3cb0017e4f7dd.csv,5cb9ca6814b3cb0017e4f7dd,five_dcr_survey,five_dcr_survey,question,q14,5DCR question 14,3,3,0,,,,1423,60902,,,,,,,,,,,,,
data_5cb9ca6814b3cb0017e4f7dd.csv,5cb9ca6814b3cb0017e4f7dd,five_dcr_survey,five_dcr_survey,question,q15,5DCR question 15,5,5,0,,,,1423,60902,,,,,,,,,,,,,
data_5cb9ca6814b3cb0017e4f7dd.csv,5cb9ca6814b3cb0017e4f7dd,five_dcr_survey,five_dcr_survey,question,q16,5DCR question 16,2,2,0,,,,1423,60902,,,,,,,,,,,,,
data_5cb9ca6814b3cb0017e4f7dd.csv,5cb9ca6814b3cb0017e4f7dd,five_dcr_survey,five_dcr_survey,question,q17,5DCR question 17,7,7,0,,,,1423,60902,,,,,,,,,,,,,
data_5cb9ca6814b3cb0017e4f7dd.csv,5cb9ca6814b3cb0017e4f7dd,five_dcr_survey,five_dcr_survey,question,q18,5DCR question 18,7,7,0,,,,1423,60902,,,,,,,,,,,,,
data_5cb9ca6814b3cb0017e4f7dd.csv,5cb9ca6814b3cb0017e4f7dd,five_dcr_survey,five_dcr_survey,question,q19,5DCR question 19,7,7,0,,,,1423,60902,,,,,,,,,,,,,
data_5cb9ca6814b3cb0017e4f7dd.csv,5cb9ca6814b3cb0017e4f7dd,five_dcr_survey,five_dcr_survey,question,q20,5DCR question 20,7,7,0,,,,1423,60902,,,,,,,,,,,,,
data_5cb9ca6814b3cb0017e4f7dd.csv,5cb9ca6814b3cb0017e4f7dd,five_dcr_survey,five_dcr_survey,question,q21,5DCR question 21,6,6,0,,,,1423,60902,,,,,,,,,,,,,
data_5cb9ca6814b3cb0017e4f7dd.csv,5cb9ca6814b3cb0017e4f7dd,five_dcr_survey,five_dcr_survey,question,q22,5DCR question 22,6,6,0,,,,1423,60902,,,,,,,,,,,,,
data_5cb9ca6814b3cb0017e4f7dd.csv,5cb9ca6814b3cb0017e4f7dd,five_dcr_survey,five_dcr_survey,question,q23,5DCR question 23,4,4,0,,,,1423,60902,,,,,,,,,,,,,
data_5cb9ca6814b3cb0017e4f7dd.csv,5cb9ca6814b3cb0017e4f7dd,five_dcr_survey,five_dcr_survey,question,q24,5DCR question 24,4,4,0,,,,1423,60902,,,,,,,,,,,,,
data_5cb9ca6814b3cb0017e4f7dd.csv,5cb9ca6814b3cb0017e4f7dd,five_dcr_survey,five_dcr_survey,score,joyous_exploration_avg,joyous_exploration_avg,6.75,,,,,,1423,60902,,,,,,,,,,,,,
data_5cb9ca6814b3cb0017e4f7dd.csv,5cb9ca6814b3cb0017e4f7dd,five_dcr_survey,five_dcr_survey,score,deprivation_sensitivity_avg,deprivation_sensitivity_avg,4.75,,,,,,1423,60902,,,,,,,,,,,,,
data_5cb9ca6814b3cb0017e4f7dd.csv,5cb9ca6814b3cb0017e4f7dd,five_dcr_survey,five_dcr_survey,score,stress_tolerance_avg,stress_tolerance_avg,5.25,,,,,,1423,60902,,,,,,,,,,,,,
data_5cb9ca6814b3cb0017e4f7dd.csv,5cb9ca6814b3cb0017e4f7dd,five_dcr_survey,five_dcr_survey,score,thrill_seeking_avg,thrill_seeking_avg,3,,,,,,1423,60902,,,,,,,,,,,,,
data_5cb9ca6814b3cb0017e4f7dd.csv,5cb9ca6814b3cb0017e4f7dd,five_dcr_survey,five_dcr_survey,score,general_social_curiosity_avg,general_social_curiosity_avg,7,,,,,,1423,60902,,,,,,,,,,,,,
data_5cb9ca6814b3cb0017e4f7dd.csv,5cb9ca6814b3cb0017e4f7dd,five_dcr_survey,five_dcr_survey,score,covert_social_curiosity_avg,covert_social_curiosity_avg,5,,,,,,1423,60902,,,,,,,,,,,,,
data_5cb9ca6814b3cb0017e4f7dd.csv,5cb9ca6814b3cb0017e4f7dd,need_for_cognition_survey,need_for_cognition_survey,question,item_1,NFC item 1,5,5,0,,,1421,1422,22704,2794762.7000000477,,,,,,,,,,,,
data_5cb9ca6814b3cb0017e4f7dd.csv,5cb9ca6814b3cb0017e4f7dd,need_for_cognition_survey,need_for_cognition_survey,question,item_2,NFC item 2,5,5,0,,,1421,1422,22704,2794762.7000000477,,,,,,,,,,,,
data_5cb9ca6814b3cb0017e4f7dd.csv,5cb9ca6814b3cb0017e4f7dd,need_for_cognition_survey,need_for_cognition_survey,question,item_3,NFC item 3,1,5,1,,,1421,1422,22704,2794762.7000000477,,,,,,,,,,,,
data_5cb9ca6814b3cb0017e4f7dd.csv,5cb9ca6814b3cb0017e4f7dd,need_for_cognition_survey,need_for_cognition_survey,question,item_4,NFC item 4,1,5,1,,,1421,1422,22704,2794762.7000000477,,,,,,,,,,,,
data_5cb9ca6814b3cb0017e4f7dd.csv,5cb9ca6814b3cb0017e4f7dd,need_for_cognition_survey,need_for_cognition_survey,question,item_5,NFC item 5,1,5,1,,,1421,1422,22704,2794762.7000000477,,,,,,,,,,,,
data_5cb9ca6814b3cb0017e4f7dd.csv,5cb9ca6814b3cb0017e4f7dd,need_for_cognition_survey,need_for_cognition_survey,question,item_6,NFC item 6,5,5,0,,,1421,1422,22704,2794762.7000000477,,,,,,,,,,,,
data_5cb9ca6814b3cb0017e4f7dd.csv,5cb9ca6814b3cb0017e4f7dd,need_for_cognition_survey,need_for_cognition_survey,question,item_7,NFC item 7,1,5,1,,,1421,1422,22704,2794762.7000000477,,,,,,,,,,,,
data_5cb9ca6814b3cb0017e4f7dd.csv,5cb9ca6814b3cb0017e4f7dd,need_for_cognition_survey,need_for_cognition_survey,question,item_8,NFC item 8,2,4,1,,,1421,1422,22704,2794762.7000000477,,,,,,,,,,,,
data_5cb9ca6814b3cb0017e4f7dd.csv,5cb9ca6814b3cb0017e4f7dd,need_for_cognition_survey,need_for_cognition_survey,question,item_9,NFC item 9,2,4,1,,,1421,1422,22704,2794762.7000000477,,,,,,,,,,,,
data_5cb9ca6814b3cb0017e4f7dd.csv,5cb9ca6814b3cb0017e4f7dd,need_for_cognition_survey,need_for_cognition_survey,question,item_10,NFC item 10,5,5,0,,,1421,1422,22704,2794762.7000000477,,,,,,,,,,,,
data_5cb9ca6814b3cb0017e4f7dd.csv,5cb9ca6814b3cb0017e4f7dd,need_for_cognition_survey,need_for_cognition_survey,question,item_11,NFC item 11,5,5,0,,,1421,1422,22704,2794762.7000000477,,,,,,,,,,,,
data_5cb9ca6814b3cb0017e4f7dd.csv,5cb9ca6814b3cb0017e4f7dd,need_for_cognition_survey,need_for_cognition_survey,question,item_12,NFC item 12,1,5,1,,,1421,1422,22704,2794762.7000000477,,,,,,,,,,,,
data_5cb9ca6814b3cb0017e4f7dd.csv,5cb9ca6814b3cb0017e4f7dd,need_for_cognition_survey,need_for_cognition_survey,question,item_13,NFC item 13,5,5,0,,,1421,1422,22704,2794762.7000000477,,,,,,,,,,,,
data_5cb9ca6814b3cb0017e4f7dd.csv,5cb9ca6814b3cb0017e4f7dd,need_for_cognition_survey,need_for_cognition_survey,question,item_14,NFC item 14,5,5,0,,,1421,1422,22704,2794762.7000000477,,,,,,,,,,,,
data_5cb9ca6814b3cb0017e4f7dd.csv,5cb9ca6814b3cb0017e4f7dd,need_for_cognition_survey,need_for_cognition_survey,question,item_15,NFC item 15,5,5,0,,,1421,1422,22704,2794762.7000000477,,,,,,,,,,,,
data_5cb9ca6814b3cb0017e4f7dd.csv,5cb9ca6814b3cb0017e4f7dd,need_for_cognition_survey,need_for_cognition_survey,question,item_16,NFC item 16,1,5,1,,,1421,1422,22704,2794762.7000000477,,,,,,,,,,,,
data_5cb9ca6814b3cb0017e4f7dd.csv,5cb9ca6814b3cb0017e4f7dd,need_for_cognition_survey,need_for_cognition_survey,question,item_17,NFC item 17,1,5,1,,,1421,1422,22704,2794762.7000000477,,,,,,,,,,,,
data_5cb9ca6814b3cb0017e4f7dd.csv,5cb9ca6814b3cb0017e4f7dd,need_for_cognition_survey,need_for_cognition_survey,question,item_18,NFC item 18,3,3,0,,,1421,1422,22704,2794762.7000000477,,,,,,,,,,,,
data_5cb9ca6814b3cb0017e4f7dd.csv,5cb9ca6814b3cb0017e4f7dd,need_for_cognition_survey,need_for_cognition_survey,score,nfc_raw_total,nfc_raw_total,54,,,,,1421,1422,22704,2794762.7000000477,,,,,,,,,,,,
data_5cb9ca6814b3cb0017e4f7dd.csv,5cb9ca6814b3cb0017e4f7dd,need_for_cognition_survey,need_for_cognition_survey,score,nfc_raw_mean,nfc_raw_mean,3,,,,,1421,1422,22704,2794762.7000000477,,,,,,,,,,,,
data_5cb9ca6814b3cb0017e4f7dd.csv,5cb9ca6814b3cb0017e4f7dd,need_for_cognition_survey,need_for_cognition_survey,score,nfc_scored_total,nfc_scored_total,86,,,,,1421,1422,22704,2794762.7000000477,,,,,,,,,,,,
data_5cb9ca6814b3cb0017e4f7dd.csv,5cb9ca6814b3cb0017e4f7dd,need_for_cognition_survey,need_for_cognition_survey,score,nfc_scored_mean,nfc_scored_mean,4.777777777777778,,,,,1421,1422,22704,2794762.7000000477,,,,,,,,,,,,
data_5cb9ca6814b3cb0017e4f7dd.csv,5cb9ca6814b3cb0017e4f7dd,post_survey,post_survey,question,enjoyment,enjoyment,2,,,,,1437,1438,,3322828,,,,,,,,,,,,
data_5cb9ca6814b3cb0017e4f7dd.csv,5cb9ca6814b3cb0017e4f7dd,post_survey,post_survey,question,difficulty,difficulty,7,,,,,1437,1438,,3322828,,,,,,,,,,,,
data_5cb9ca6814b3cb0017e4f7dd.csv,5cb9ca6814b3cb0017e4f7dd,post_survey,post_survey,question,strategy,strategy,"It wasn't really clear to me if the points for different mushrooms were consistent across the levels. It appears they were. I tried to focus on independent elements, like color, shape and stem width. Unfortunately, this wasn't particularly useful, as it appeared none of these were determinant. Instead, it was the combinations of the three that were important. The exception seemed to be that all red mushrooms had a positive value. All pink/fuchsia may have had negative value, but it was unclear. Because I wasn't able to figure out a way to isolate the individual elements, I found it rather difficult. With the exception of the red ones. On a few levels I tried to just keep going collecting reds. But, even when I played a single level for a long time it did not seem like it progressed it much further than levels where I hit ""P"" as soon as I was permitted to move forward. I don't want to sound like I was complaining when I said it was unenjoyable, but the difficulty for me definitely frustrated me. When I don't feel like I'm doing well at something, it motivates me to try harder. I suppose, if a monetary award was connected to how well I did, I probably would've created an excel sheet or something and taken detailed notes instead of trying to go just off of memory.",,,,,1437,1438,,3322828,,,,,,,,,,,,
data_5cb9ca6814b3cb0017e4f7dd.csv,5cb9ca6814b3cb0017e4f7dd,post_survey,post_survey,question,color_rank_most_to_least,color_rank_most_to_least,red>black>white>green>yellow>blue>cyan>magenta,,,,,1437,1438,,3322828,,,,,,,,,,,,
data_5cb9ca6814b3cb0017e4f7dd.csv,5cb9ca6814b3cb0017e4f7dd,post_survey,post_survey,question,room_rank_easiest_to_hardest,room_rank_easiest_to_hardest,lava>ocean>cave>forest>desert,,,,,1437,1438,,3322828,,,,,,,,,,,,
data_5cb9ca6814b3cb0017e4f7dd.csv,5cb9ca6814b3cb0017e4f7dd,post_survey,post_survey,question,builder_color_order,builder_color_order,black>white>red>green>blue>cyan>magenta>yellow,,,,,1437,1438,,3322828,,,,,,,,,,,,
data_5cb9ca6814b3cb0017e4f7dd.csv,5cb9ca6814b3cb0017e4f7dd,post_survey_builder,post_survey_builder,question,black,Post-survey builder black,,,,,,1428,1429,11892.799999952316,2895616.9000000954,,,,,black,67,64,10.370000000000001,1.352,TexturePack/mushroom_pack/images_balanced/black-10-1.304-+3.png,10,1.304
data_5cb9ca6814b3cb0017e4f7dd.csv,5cb9ca6814b3cb0017e4f7dd,post_survey_builder,post_survey_builder,question,white,Post-survey builder white,,,,,,1429,1430,6622.199999809265,2902240,,,,,white,66,67,10.260000000000002,1.4060000000000001,TexturePack/mushroom_pack/images_balanced/white-10-1.391--1.png,10,1.391
data_5cb9ca6814b3cb0017e4f7dd.csv,5cb9ca6814b3cb0017e4f7dd,post_survey_builder,post_survey_builder,question,red,Post-survey builder red,,,,,,1430,1431,9764.799999952316,2912005.7000000477,,,,,red,84,100,12.24,2,TexturePack/mushroom_pack/images_balanced/red-12-2.000-+8.png,12,2
data_5cb9ca6814b3cb0017e4f7dd.csv,5cb9ca6814b3cb0017e4f7dd,post_survey_builder,post_survey_builder,question,green,Post-survey builder green,,,,,,1431,1432,6368.400000095367,2918374.8000001907,,,,,green,71,71,10.809999999999999,1.478,TexturePack/mushroom_pack/images_balanced/green-11-1.417-+1.png,11,1.417
data_5cb9ca6814b3cb0017e4f7dd.csv,5cb9ca6814b3cb0017e4f7dd,post_survey_builder,post_survey_builder,question,blue,Post-survey builder blue,,,,,,1432,1433,8191.799999952316,2926567.600000143,,,,,blue,33,41,6.630000000000001,0.938,TexturePack/mushroom_pack/images_balanced/blue-07-0.932--1.png,7,0.932
data_5cb9ca6814b3cb0017e4f7dd.csv,5cb9ca6814b3cb0017e4f7dd,post_survey_builder,post_survey_builder,question,cyan,Post-survey builder cyan,,,,,,1433,1434,8036.799999952316,2934605.2000000477,,,,,cyan,100,50,14,1.1,TexturePack/mushroom_pack/images_balanced/cyan-14-1.103--1.png,14,1.103
data_5cb9ca6814b3cb0017e4f7dd.csv,5cb9ca6814b3cb0017e4f7dd,post_survey_builder,post_survey_builder,question,magenta,Post-survey builder magenta,,,,,,1434,1435,8717.099999904633,2943323,,,,,magenta,43,44,7.7299999999999995,0.992,TexturePack/mushroom_pack/images_balanced/magenta-08-0.969--4.png,8,0.969
data_5cb9ca6814b3cb0017e4f7dd.csv,5cb9ca6814b3cb0017e4f7dd,post_survey_builder,post_survey_builder,question,yellow,Post-survey builder yellow,,,,,,1435,1436,5516.599999904633,2948840.4000000954,,,,,yellow,73,68,11.03,1.4240000000000002,TexturePack/mushroom_pack/images_balanced/yellow-11-1.323-+3.png,11,1.323
data_5cb9ca6814b3cb0017e4f7dd.csv,5cb9ca6814b3cb0017e4f7dd,post_survey_demographics,post_survey_demographics,question,gender,gender,Male,,,,,1436,1437,27699.200000047684,2976540.3000001907,,,,,,,,,,,,
data_5cb9ca6814b3cb0017e4f7dd.csv,5cb9ca6814b3cb0017e4f7dd,post_survey_demographics,post_survey_demographics,question,age,age,38,,,,,1436,1437,27699.200000047684,2976540.3000001907,,,,,,,,,,,,
data_5cb9ca6814b3cb0017e4f7dd.csv,5cb9ca6814b3cb0017e4f7dd,post_survey_demographics,post_survey_demographics,question,game_frequency,game_frequency,Always,,,,,1436,1437,27699.200000047684,2976540.3000001907,,,,,,,,,,,,
data_5cb9ca6814b3cb0017e4f7dd.csv,5cb9ca6814b3cb0017e4f7dd,post_survey_demographics,post_survey_demographics,question,weekly_game_hours_past_month,weekly_game_hours_past_month,5,,,,,1436,1437,27699.200000047684,2976540.3000001907,,,,,,,,,,,,
data_5cb9ca6814b3cb0017e4f7dd.csv,5cb9ca6814b3cb0017e4f7dd,post_survey_demographics,post_survey_demographics,question,gamer_identity,gamer_identity,Agree,,,,,1436,1437,27699.200000047684,2976540.3000001907,,,,,,,,,,,,
data_5d4c78071b920f00198e8533.csv,5d4c78071b920f00198e8533,bis_bas_survey,bis_bas_survey,question,item_1,BIS/BAS item 1,4,1,1,,,1198,1199,11065.70000000298,3015221.8999999985,,,,,,,,,,,,
data_5d4c78071b920f00198e8533.csv,5d4c78071b920f00198e8533,bis_bas_survey,bis_bas_survey,question,item_2,BIS/BAS item 2,3,3,0,,,1198,1199,11065.70000000298,3015221.8999999985,,,,,,,,,,,,
data_5d4c78071b920f00198e8533.csv,5d4c78071b920f00198e8533,bis_bas_survey,bis_bas_survey,question,item_3,BIS/BAS item 3,1,1,0,,,1198,1199,11065.70000000298,3015221.8999999985,,,,,,,,,,,,
data_5d4c78071b920f00198e8533.csv,5d4c78071b920f00198e8533,bis_bas_survey,bis_bas_survey,question,item_4,BIS/BAS item 4,1,1,0,,,1198,1199,11065.70000000298,3015221.8999999985,,,,,,,,,,,,
data_5d4c78071b920f00198e8533.csv,5d4c78071b920f00198e8533,bis_bas_survey,bis_bas_survey,question,item_5,BIS/BAS item 5,1,1,0,,,1198,1199,11065.70000000298,3015221.8999999985,,,,,,,,,,,,
data_5d4c78071b920f00198e8533.csv,5d4c78071b920f00198e8533,bis_bas_survey,bis_bas_survey,question,item_6,BIS/BAS item 6,2,2,0,,,1198,1199,11065.70000000298,3015221.8999999985,,,,,,,,,,,,
data_5d4c78071b920f00198e8533.csv,5d4c78071b920f00198e8533,bis_bas_survey,bis_bas_survey,question,item_7,BIS/BAS item 7,2,2,0,,,1198,1199,11065.70000000298,3015221.8999999985,,,,,,,,,,,,
data_5d4c78071b920f00198e8533.csv,5d4c78071b920f00198e8533,bis_bas_survey,bis_bas_survey,question,item_8,BIS/BAS item 8,1,1,0,,,1198,1199,11065.70000000298,3015221.8999999985,,,,,,,,,,,,
data_5d4c78071b920f00198e8533.csv,5d4c78071b920f00198e8533,bis_bas_survey,bis_bas_survey,question,item_9,BIS/BAS item 9,2,2,0,,,1198,1199,11065.70000000298,3015221.8999999985,,,,,,,,,,,,
data_5d4c78071b920f00198e8533.csv,5d4c78071b920f00198e8533,bis_bas_survey,bis_bas_survey,question,item_10,BIS/BAS item 10,1,1,0,,,1198,1199,11065.70000000298,3015221.8999999985,,,,,,,,,,,,
data_5d4c78071b920f00198e8533.csv,5d4c78071b920f00198e8533,bis_bas_survey,bis_bas_survey,question,item_11,BIS/BAS item 11,2,2,0,,,1198,1199,11065.70000000298,3015221.8999999985,,,,,,,,,,,,
data_5d4c78071b920f00198e8533.csv,5d4c78071b920f00198e8533,bis_bas_survey,bis_bas_survey,question,item_12,BIS/BAS item 12,3,3,0,,,1198,1199,11065.70000000298,3015221.8999999985,,,,,,,,,,,,
data_5d4c78071b920f00198e8533.csv,5d4c78071b920f00198e8533,bis_bas_survey,bis_bas_survey,question,item_13,BIS/BAS item 13,2,2,0,,,1198,1199,11065.70000000298,3015221.8999999985,,,,,,,,,,,,
data_5d4c78071b920f00198e8533.csv,5d4c78071b920f00198e8533,bis_bas_survey,bis_bas_survey,question,item_14,BIS/BAS item 14,1,1,0,,,1198,1199,11065.70000000298,3015221.8999999985,,,,,,,,,,,,
data_5d4c78071b920f00198e8533.csv,5d4c78071b920f00198e8533,bis_bas_survey,bis_bas_survey,question,item_15,BIS/BAS item 15,2,2,0,,,1198,1199,11065.70000000298,3015221.8999999985,,,,,,,,,,,,
data_5d4c78071b920f00198e8533.csv,5d4c78071b920f00198e8533,bis_bas_survey,bis_bas_survey,question,item_16,BIS/BAS item 16,3,3,0,,,1198,1199,11065.70000000298,3015221.8999999985,,,,,,,,,,,,
data_5d4c78071b920f00198e8533.csv,5d4c78071b920f00198e8533,bis_bas_survey,bis_bas_survey,question,item_17,BIS/BAS item 17,4,4,0,,,1198,1199,11065.70000000298,3015221.8999999985,,,,,,,,,,,,
data_5d4c78071b920f00198e8533.csv,5d4c78071b920f00198e8533,bis_bas_survey,bis_bas_survey,question,item_18,BIS/BAS item 18,4,1,1,,,1198,1199,11065.70000000298,3015221.8999999985,,,,,,,,,,,,
data_5d4c78071b920f00198e8533.csv,5d4c78071b920f00198e8533,bis_bas_survey,bis_bas_survey,question,item_19,BIS/BAS item 19,1,1,0,,,1198,1199,11065.70000000298,3015221.8999999985,,,,,,,,,,,,
data_5d4c78071b920f00198e8533.csv,5d4c78071b920f00198e8533,bis_bas_survey,bis_bas_survey,question,item_20,BIS/BAS item 20,2,2,0,,,1198,1199,11065.70000000298,3015221.8999999985,,,,,,,,,,,,
data_5d4c78071b920f00198e8533.csv,5d4c78071b920f00198e8533,bis_bas_survey,bis_bas_survey,score,bisbas_raw_total,bisbas_raw_total,42,,,,,1198,1199,11065.70000000298,3015221.8999999985,,,,,,,,,,,,
data_5d4c78071b920f00198e8533.csv,5d4c78071b920f00198e8533,bis_bas_survey,bis_bas_survey,score,bisbas_raw_mean,bisbas_raw_mean,2.1,,,,,1198,1199,11065.70000000298,3015221.8999999985,,,,,,,,,,,,
data_5d4c78071b920f00198e8533.csv,5d4c78071b920f00198e8533,bis_bas_survey,bis_bas_survey,score,bisbas_scored_total,bisbas_scored_total,36,,,,,1198,1199,11065.70000000298,3015221.8999999985,,,,,,,,,,,,
data_5d4c78071b920f00198e8533.csv,5d4c78071b920f00198e8533,bis_bas_survey,bis_bas_survey,score,bisbas_scored_mean,bisbas_scored_mean,1.8,,,,,1198,1199,11065.70000000298,3015221.8999999985,,,,,,,,,,,,
data_5d4c78071b920f00198e8533.csv,5d4c78071b920f00198e8533,bis_bas_survey,bis_bas_survey,score,bis_score_sum,bis_score_sum,11,,,,,1198,1199,11065.70000000298,3015221.8999999985,,,,,,,,,,,,
data_5d4c78071b920f00198e8533.csv,5d4c78071b920f00198e8533,bis_bas_survey,bis_bas_survey,score,bis_score_mean,bis_score_mean,1.5714285714285714,,,,,1198,1199,11065.70000000298,3015221.8999999985,,,,,,,,,,,,
data_5d4c78071b920f00198e8533.csv,5d4c78071b920f00198e8533,bis_bas_survey,bis_bas_survey,score,bas_drive_sum,bas_drive_sum,11,,,,,1198,1199,11065.70000000298,3015221.8999999985,,,,,,,,,,,,
data_5d4c78071b920f00198e8533.csv,5d4c78071b920f00198e8533,bis_bas_survey,bis_bas_survey,score,bas_drive_mean,bas_drive_mean,2.75,,,,,1198,1199,11065.70000000298,3015221.8999999985,,,,,,,,,,,,
data_5d4c78071b920f00198e8533.csv,5d4c78071b920f00198e8533,bis_bas_survey,bis_bas_survey,score,bas_fun_seeking_sum,bas_fun_seeking_sum,8,,,,,1198,1199,11065.70000000298,3015221.8999999985,,,,,,,,,,,,
data_5d4c78071b920f00198e8533.csv,5d4c78071b920f00198e8533,bis_bas_survey,bis_bas_survey,score,bas_fun_seeking_mean,bas_fun_seeking_mean,2,,,,,1198,1199,11065.70000000298,3015221.8999999985,,,,,,,,,,,,
data_5d4c78071b920f00198e8533.csv,5d4c78071b920f00198e8533,bis_bas_survey,bis_bas_survey,score,bas_reward_responsiveness_sum,bas_reward_responsiveness_sum,6,,,,,1198,1199,11065.70000000298,3015221.8999999985,,,,,,,,,,,,
data_5d4c78071b920f00198e8533.csv,5d4c78071b920f00198e8533,bis_bas_survey,bis_bas_survey,score,bas_reward_responsiveness_mean,bas_reward_responsiveness_mean,1.2,,,,,1198,1199,11065.70000000298,3015221.8999999985,,,,,,,,,,,,
data_5d4c78071b920f00198e8533.csv,5d4c78071b920f00198e8533,bis_bas_survey,bis_bas_survey,score,bas_total_sum,bas_total_sum,25,,,,,1198,1199,11065.70000000298,3015221.8999999985,,,,,,,,,,,,
data_5d4c78071b920f00198e8533.csv,5d4c78071b920f00198e8533,bis_bas_survey,bis_bas_survey,score,bas_total_mean,bas_total_mean,1.9230769230769231,,,,,1198,1199,11065.70000000298,3015221.8999999985,,,,,,,,,,,,
data_5d4c78071b920f00198e8533.csv,5d4c78071b920f00198e8533,color_blind_survey,color_blind_survey_plate,question,ishihara_1,Practice,12,true,,12,false,,1202,4959,,1,ishihara_1,Practice,TexturePack/colorblind/500px-Ishihara_1.svg.png,,,,,,,,
data_5d4c78071b920f00198e8533.csv,5d4c78071b920f00198e8533,color_blind_survey,color_blind_survey_plate,question,ishihara_9,Plate 1,74,true,,74,true,,1203,4933,,2,ishihara_9,Plate 1,TexturePack/colorblind/500px-Ishihara_9.svg.png,,,,,,,,
data_5d4c78071b920f00198e8533.csv,5d4c78071b920f00198e8533,color_blind_survey,color_blind_survey_plate,question,ishihara_11,Plate 2,6,true,,6,true,,1204,5449,,3,ishihara_11,Plate 2,TexturePack/colorblind/500px-Ishihara_11.PNG,,,,,,,,
data_5d4c78071b920f00198e8533.csv,5d4c78071b920f00198e8533,color_blind_survey,color_blind_survey_plate,question,ishihara_23,Plate 3,42,true,,42,true,,1205,4000,,4,ishihara_23,Plate 3,TexturePack/colorblind/500px-Ishihara_23.PNG,,,,,,,,
data_5d4c78071b920f00198e8533.csv,5d4c78071b920f00198e8533,color_blind_survey,color_blind_survey_summary,score,n_items_total,n_items_total,4,,,,,,1206,,,,,,,,,,,,,,
data_5d4c78071b920f00198e8533.csv,5d4c78071b920f00198e8533,color_blind_survey,color_blind_survey_summary,score,n_items_scored,n_items_scored,3,,,,,,1206,,,,,,,,,,,,,,
data_5d4c78071b920f00198e8533.csv,5d4c78071b920f00198e8533,color_blind_survey,color_blind_survey_summary,score,n_correct_scored,n_correct_scored,3,,,,,,1206,,,,,,,,,,,,,,
data_5d4c78071b920f00198e8533.csv,5d4c78071b920f00198e8533,color_blind_survey,color_blind_survey_summary,score,accuracy_scored,accuracy_scored,1,,,,,,1206,,,,,,,,,,,,,,
data_5d4c78071b920f00198e8533.csv,5d4c78071b920f00198e8533,color_blind_survey,color_blind_survey_summary,score,passed_all_scored,passed_all_scored,true,,,,,,1206,,,,,,,,,,,,,,
data_5d4c78071b920f00198e8533.csv,5d4c78071b920f00198e8533,five_dcr_survey,five_dcr_survey,question,q1,5DCR question 1,4,4,0,,,,1201,89864,,,,,,,,,,,,,
data_5d4c78071b920f00198e8533.csv,5d4c78071b920f00198e8533,five_dcr_survey,five_dcr_survey,question,q2,5DCR question 2,1,1,0,,,,1201,89864,,,,,,,,,,,,,
data_5d4c78071b920f00198e8533.csv,5d4c78071b920f00198e8533,five_dcr_survey,five_dcr_survey,question,q3,5DCR question 3,3,3,0,,,,1201,89864,,,,,,,,,,,,,
data_5d4c78071b920f00198e8533.csv,5d4c78071b920f00198e8533,five_dcr_survey,five_dcr_survey,question,q4,5DCR question 4,4,4,0,,,,1201,89864,,,,,,,,,,,,,
data_5d4c78071b920f00198e8533.csv,5d4c78071b920f00198e8533,five_dcr_survey,five_dcr_survey,question,q5,5DCR question 5,1,1,0,,,,1201,89864,,,,,,,,,,,,,
data_5d4c78071b920f00198e8533.csv,5d4c78071b920f00198e8533,five_dcr_survey,five_dcr_survey,question,q6,5DCR question 6,1,1,0,,,,1201,89864,,,,,,,,,,,,,
data_5d4c78071b920f00198e8533.csv,5d4c78071b920f00198e8533,five_dcr_survey,five_dcr_survey,question,q7,5DCR question 7,2,2,0,,,,1201,89864,,,,,,,,,,,,,
data_5d4c78071b920f00198e8533.csv,5d4c78071b920f00198e8533,five_dcr_survey,five_dcr_survey,question,q8,5DCR question 8,2,2,0,,,,1201,89864,,,,,,,,,,,,,
data_5d4c78071b920f00198e8533.csv,5d4c78071b920f00198e8533,five_dcr_survey,five_dcr_survey,question,q9,5DCR question 9,5,3,1,,,,1201,89864,,,,,,,,,,,,,
data_5d4c78071b920f00198e8533.csv,5d4c78071b920f00198e8533,five_dcr_survey,five_dcr_survey,question,q10,5DCR question 10,6,2,1,,,,1201,89864,,,,,,,,,,,,,
data_5d4c78071b920f00198e8533.csv,5d4c78071b920f00198e8533,five_dcr_survey,five_dcr_survey,question,q11,5DCR question 11,6,2,1,,,,1201,89864,,,,,,,,,,,,,
data_5d4c78071b920f00198e8533.csv,5d4c78071b920f00198e8533,five_dcr_survey,five_dcr_survey,question,q12,5DCR question 12,5,3,1,,,,1201,89864,,,,,,,,,,,,,
data_5d4c78071b920f00198e8533.csv,5d4c78071b920f00198e8533,five_dcr_survey,five_dcr_survey,question,q13,5DCR question 13,1,1,0,,,,1201,89864,,,,,,,,,,,,,
data_5d4c78071b920f00198e8533.csv,5d4c78071b920f00198e8533,five_dcr_survey,five_dcr_survey,question,q14,5DCR question 14,1,1,0,,,,1201,89864,,,,,,,,,,,,,
data_5d4c78071b920f00198e8533.csv,5d4c78071b920f00198e8533,five_dcr_survey,five_dcr_survey,question,q15,5DCR question 15,1,1,0,,,,1201,89864,,,,,,,,,,,,,
data_5d4c78071b920f00198e8533.csv,5d4c78071b920f00198e8533,five_dcr_survey,five_dcr_survey,question,q16,5DCR question 16,1,1,0,,,,1201,89864,,,,,,,,,,,,,
data_5d4c78071b920f00198e8533.csv,5d4c78071b920f00198e8533,five_dcr_survey,five_dcr_survey,question,q17,5DCR question 17,4,4,0,,,,1201,89864,,,,,,,,,,,,,
data_5d4c78071b920f00198e8533.csv,5d4c78071b920f00198e8533,five_dcr_survey,five_dcr_survey,question,q18,5DCR question 18,5,5,0,,,,1201,89864,,,,,,,,,,,,,
data_5d4c78071b920f00198e8533.csv,5d4c78071b920f00198e8533,five_dcr_survey,five_dcr_survey,question,q19,5DCR question 19,4,4,0,,,,1201,89864,,,,,,,,,,,,,
data_5d4c78071b920f00198e8533.csv,5d4c78071b920f00198e8533,five_dcr_survey,five_dcr_survey,question,q20,5DCR question 20,3,3,0,,,,1201,89864,,,,,,,,,,,,,
data_5d4c78071b920f00198e8533.csv,5d4c78071b920f00198e8533,five_dcr_survey,five_dcr_survey,question,q21,5DCR question 21,1,1,0,,,,1201,89864,,,,,,,,,,,,,
data_5d4c78071b920f00198e8533.csv,5d4c78071b920f00198e8533,five_dcr_survey,five_dcr_survey,question,q22,5DCR question 22,5,5,0,,,,1201,89864,,,,,,,,,,,,,
data_5d4c78071b920f00198e8533.csv,5d4c78071b920f00198e8533,five_dcr_survey,five_dcr_survey,question,q23,5DCR question 23,4,4,0,,,,1201,89864,,,,,,,,,,,,,
data_5d4c78071b920f00198e8533.csv,5d4c78071b920f00198e8533,five_dcr_survey,five_dcr_survey,question,q24,5DCR question 24,1,1,0,,,,1201,89864,,,,,,,,,,,,,
data_5d4c78071b920f00198e8533.csv,5d4c78071b920f00198e8533,five_dcr_survey,five_dcr_survey,score,joyous_exploration_avg,joyous_exploration_avg,3,,,,,,1201,89864,,,,,,,,,,,,,
data_5d4c78071b920f00198e8533.csv,5d4c78071b920f00198e8533,five_dcr_survey,five_dcr_survey,score,deprivation_sensitivity_avg,deprivation_sensitivity_avg,1.5,,,,,,1201,89864,,,,,,,,,,,,,
data_5d4c78071b920f00198e8533.csv,5d4c78071b920f00198e8533,five_dcr_survey,five_dcr_survey,score,stress_tolerance_avg,stress_tolerance_avg,2.5,,,,,,1201,89864,,,,,,,,,,,,,
data_5d4c78071b920f00198e8533.csv,5d4c78071b920f00198e8533,five_dcr_survey,five_dcr_survey,score,thrill_seeking_avg,thrill_seeking_avg,1,,,,,,1201,89864,,,,,,,,,,,,,
data_5d4c78071b920f00198e8533.csv,5d4c78071b920f00198e8533,five_dcr_survey,five_dcr_survey,score,general_social_curiosity_avg,general_social_curiosity_avg,4,,,,,,1201,89864,,,,,,,,,,,,,
data_5d4c78071b920f00198e8533.csv,5d4c78071b920f00198e8533,five_dcr_survey,five_dcr_survey,score,covert_social_curiosity_avg,covert_social_curiosity_avg,2.75,,,,,,1201,89864,,,,,,,,,,,,,
data_5d4c78071b920f00198e8533.csv,5d4c78071b920f00198e8533,need_for_cognition_survey,need_for_cognition_survey,question,item_1,NFC item 1,1,1,0,,,1199,1200,22665.79999999702,3066038.1999999955,,,,,,,,,,,,
data_5d4c78071b920f00198e8533.csv,5d4c78071b920f00198e8533,need_for_cognition_survey,need_for_cognition_survey,question,item_2,NFC item 2,1,1,0,,,1199,1200,22665.79999999702,3066038.1999999955,,,,,,,,,,,,
data_5d4c78071b920f00198e8533.csv,5d4c78071b920f00198e8533,need_for_cognition_survey,need_for_cognition_survey,question,item_3,NFC item 3,5,1,1,,,1199,1200,22665.79999999702,3066038.1999999955,,,,,,,,,,,,
data_5d4c78071b920f00198e8533.csv,5d4c78071b920f00198e8533,need_for_cognition_survey,need_for_cognition_survey,question,item_4,NFC item 4,5,1,1,,,1199,1200,22665.79999999702,3066038.1999999955,,,,,,,,,,,,
data_5d4c78071b920f00198e8533.csv,5d4c78071b920f00198e8533,need_for_cognition_survey,need_for_cognition_survey,question,item_5,NFC item 5,5,1,1,,,1199,1200,22665.79999999702,3066038.1999999955,,,,,,,,,,,,
data_5d4c78071b920f00198e8533.csv,5d4c78071b920f00198e8533,need_for_cognition_survey,need_for_cognition_survey,question,item_6,NFC item 6,1,1,0,,,1199,1200,22665.79999999702,3066038.1999999955,,,,,,,,,,,,
data_5d4c78071b920f00198e8533.csv,5d4c78071b920f00198e8533,need_for_cognition_survey,need_for_cognition_survey,question,item_7,NFC item 7,3,3,1,,,1199,1200,22665.79999999702,3066038.1999999955,,,,,,,,,,,,
data_5d4c78071b920f00198e8533.csv,5d4c78071b920f00198e8533,need_for_cognition_survey,need_for_cognition_survey,question,item_8,NFC item 8,3,3,1,,,1199,1200,22665.79999999702,3066038.1999999955,,,,,,,,,,,,
data_5d4c78071b920f00198e8533.csv,5d4c78071b920f00198e8533,need_for_cognition_survey,need_for_cognition_survey,question,item_9,NFC item 9,4,2,1,,,1199,1200,22665.79999999702,3066038.1999999955,,,,,,,,,,,,
data_5d4c78071b920f00198e8533.csv,5d4c78071b920f00198e8533,need_for_cognition_survey,need_for_cognition_survey,question,item_10,NFC item 10,1,1,0,,,1199,1200,22665.79999999702,3066038.1999999955,,,,,,,,,,,,
data_5d4c78071b920f00198e8533.csv,5d4c78071b920f00198e8533,need_for_cognition_survey,need_for_cognition_survey,question,item_11,NFC item 11,1,1,0,,,1199,1200,22665.79999999702,3066038.1999999955,,,,,,,,,,,,
data_5d4c78071b920f00198e8533.csv,5d4c78071b920f00198e8533,need_for_cognition_survey,need_for_cognition_survey,question,item_12,NFC item 12,4,2,1,,,1199,1200,22665.79999999702,3066038.1999999955,,,,,,,,,,,,
data_5d4c78071b920f00198e8533.csv,5d4c78071b920f00198e8533,need_for_cognition_survey,need_for_cognition_survey,question,item_13,NFC item 13,1,1,0,,,1199,1200,22665.79999999702,3066038.1999999955,,,,,,,,,,,,
data_5d4c78071b920f00198e8533.csv,5d4c78071b920f00198e8533,need_for_cognition_survey,need_for_cognition_survey,question,item_14,NFC item 14,1,1,0,,,1199,1200,22665.79999999702,3066038.1999999955,,,,,,,,,,,,
data_5d4c78071b920f00198e8533.csv,5d4c78071b920f00198e8533,need_for_cognition_survey,need_for_cognition_survey,question,item_15,NFC item 15,1,1,0,,,1199,1200,22665.79999999702,3066038.1999999955,,,,,,,,,,,,
data_5d4c78071b920f00198e8533.csv,5d4c78071b920f00198e8533,need_for_cognition_survey,need_for_cognition_survey,question,item_16,NFC item 16,5,1,1,,,1199,1200,22665.79999999702,3066038.1999999955,,,,,,,,,,,,
data_5d4c78071b920f00198e8533.csv,5d4c78071b920f00198e8533,need_for_cognition_survey,need_for_cognition_survey,question,item_17,NFC item 17,5,1,1,,,1199,1200,22665.79999999702,3066038.1999999955,,,,,,,,,,,,
data_5d4c78071b920f00198e8533.csv,5d4c78071b920f00198e8533,need_for_cognition_survey,need_for_cognition_survey,question,item_18,NFC item 18,1,1,0,,,1199,1200,22665.79999999702,3066038.1999999955,,,,,,,,,,,,
data_5d4c78071b920f00198e8533.csv,5d4c78071b920f00198e8533,need_for_cognition_survey,need_for_cognition_survey,score,nfc_raw_total,nfc_raw_total,48,,,,,1199,1200,22665.79999999702,3066038.1999999955,,,,,,,,,,,,
data_5d4c78071b920f00198e8533.csv,5d4c78071b920f00198e8533,need_for_cognition_survey,need_for_cognition_survey,score,nfc_raw_mean,nfc_raw_mean,2.6666666666666665,,,,,1199,1200,22665.79999999702,3066038.1999999955,,,,,,,,,,,,
data_5d4c78071b920f00198e8533.csv,5d4c78071b920f00198e8533,need_for_cognition_survey,need_for_cognition_survey,score,nfc_scored_total,nfc_scored_total,24,,,,,1199,1200,22665.79999999702,3066038.1999999955,,,,,,,,,,,,
data_5d4c78071b920f00198e8533.csv,5d4c78071b920f00198e8533,need_for_cognition_survey,need_for_cognition_survey,score,nfc_scored_mean,nfc_scored_mean,1.3333333333333333,,,,,1199,1200,22665.79999999702,3066038.1999999955,,,,,,,,,,,,
data_5d4c78071b920f00198e8533.csv,5d4c78071b920f00198e8533,post_survey,post_survey,question,enjoyment,enjoyment,3,,,,,1215,1216,,3365554.8999999985,,,,,,,,,,,,
data_5d4c78071b920f00198e8533.csv,5d4c78071b920f00198e8533,post_survey,post_survey,question,difficulty,difficulty,5,,,,,1215,1216,,3365554.8999999985,,,,,,,,,,,,
data_5d4c78071b920f00198e8533.csv,5d4c78071b920f00198e8533,post_survey,post_survey,question,color_rank_most_to_least,color_rank_most_to_least,red>green>cyan>white>blue>black>yellow>magenta,,,,,1215,1216,,3365554.8999999985,,,,,,,,,,,,
data_5d4c78071b920f00198e8533.csv,5d4c78071b920f00198e8533,post_survey,post_survey,question,room_rank_easiest_to_hardest,room_rank_easiest_to_hardest,lava>forest>ocean>cave>desert,,,,,1215,1216,,3365554.8999999985,,,,,,,,,,,,
data_5d4c78071b920f00198e8533.csv,5d4c78071b920f00198e8533,post_survey,post_survey,question,builder_color_order,builder_color_order,black>white>red>green>blue>cyan>magenta>yellow,,,,,1215,1216,,3365554.8999999985,,,,,,,,,,,,
data_5d4c78071b920f00198e8533.csv,5d4c78071b920f00198e8533,post_survey_builder,post_survey_builder,question,black,Post-survey builder black,,,,,,1206,1207,19608,3197835.8999999985,,,,,black,24,0,5.64,0.2,TexturePack/mushroom_pack/images_balanced/black-06-0.247--1.png,6,0.247
data_5d4c78071b920f00198e8533.csv,5d4c78071b920f00198e8533,post_survey_builder,post_survey_builder,question,white,Post-survey builder white,,,,,,1207,1208,12182,3210018.799999997,,,,,white,59,67,9.489999999999998,1.4060000000000001,TexturePack/mushroom_pack/images_balanced/white-09-1.387-+1.png,9,1.387
data_5d4c78071b920f00198e8533.csv,5d4c78071b920f00198e8533,post_survey_builder,post_survey_builder,question,red,Post-survey builder red,,,,,,1208,1209,14383.89999999851,3224403.799999997,,,,,red,51,20,8.61,0.56,TexturePack/mushroom_pack/images_balanced/red-09-0.298-+10.png,9,0.298
data_5d4c78071b920f00198e8533.csv,5d4c78071b920f00198e8533,post_survey_builder,post_survey_builder,question,green,Post-survey builder green,,,,,,1209,1210,6247.20000000298,3230652.099999994,,,,,green,61,69,9.71,1.442,TexturePack/mushroom_pack/images_balanced/green-10-1.279-+1.png,10,1.279
data_5d4c78071b920f00198e8533.csv,5d4c78071b920f00198e8533,post_survey_builder,post_survey_builder,question,blue,Post-survey builder blue,,,,,,1210,1211,9716.40000000596,3240369.5,,,,,blue,48,97,8.28,1.946,TexturePack/mushroom_pack/images_balanced/blue-08-1.898--4.png,8,1.898
data_5d4c78071b920f00198e8533.csv,5d4c78071b920f00198e8533,post_survey_builder,post_survey_builder,question,cyan,Post-survey builder cyan,,,,,,1211,1212,7047.89999999851,3247418.5,,,,,cyan,43,58,7.7299999999999995,1.244,TexturePack/mushroom_pack/images_balanced/cyan-08-1.234-+3.png,8,1.234
data_5d4c78071b920f00198e8533.csv,5d4c78071b920f00198e8533,post_survey_builder,post_survey_builder,question,magenta,Post-survey builder magenta,,,,,,1212,1213,6617.69999999553,3254037.099999994,,,,,magenta,60,14,9.6,0.45200000000000007,TexturePack/mushroom_pack/images_balanced/magenta-10-0.483-+1.png,10,0.483
data_5d4c78071b920f00198e8533.csv,5d4c78071b920f00198e8533,post_survey_builder,post_survey_builder,question,yellow,Post-survey builder yellow,,,,,,1213,1214,7980.39999999851,3262018.299999997,,,,,yellow,50,7,8.5,0.32600000000000007,TexturePack/mushroom_pack/images_balanced/yellow-08-0.332--1.png,8,0.332
data_5d4c78071b920f00198e8533.csv,5d4c78071b920f00198e8533,post_survey_demographics,post_survey_demographics,question,gender,gender,female,,,,,1214,1215,20250.5,3282269.799999997,,,,,,,,,,,,
data_5d4c78071b920f00198e8533.csv,5d4c78071b920f00198e8533,post_survey_demographics,post_survey_demographics,question,age,age,56,,,,,1214,1215,20250.5,3282269.799999997,,,,,,,,,,,,
data_5d4c78071b920f00198e8533.csv,5d4c78071b920f00198e8533,post_survey_demographics,post_survey_demographics,question,game_frequency,game_frequency,Never,,,,,1214,1215,20250.5,3282269.799999997,,,,,,,,,,,,
data_5d4c78071b920f00198e8533.csv,5d4c78071b920f00198e8533,post_survey_demographics,post_survey_demographics,question,weekly_game_hours_past_month,weekly_game_hours_past_month,0,,,,,1214,1215,20250.5,3282269.799999997,,,,,,,,,,,,
data_5d4c78071b920f00198e8533.csv,5d4c78071b920f00198e8533,post_survey_demographics,post_survey_demographics,question,gamer_identity,gamer_identity,Strongly disagree,,,,,1214,1215,20250.5,3282269.799999997,,,,,,,,,,,,
data_5e9cbc3999531a099492509f.csv,5e9cbc3999531a099492509f,bis_bas_survey,bis_bas_survey,question,item_1,BIS/BAS item 1,2,3,1,,,1418,1419,15256.10000000149,2395743.1000000015,,,,,,,,,,,,
data_5e9cbc3999531a099492509f.csv,5e9cbc3999531a099492509f,bis_bas_survey,bis_bas_survey,question,item_2,BIS/BAS item 2,2,2,0,,,1418,1419,15256.10000000149,2395743.1000000015,,,,,,,,,,,,
data_5e9cbc3999531a099492509f.csv,5e9cbc3999531a099492509f,bis_bas_survey,bis_bas_survey,question,item_3,BIS/BAS item 3,1,1,0,,,1418,1419,15256.10000000149,2395743.1000000015,,,,,,,,,,,,
data_5e9cbc3999531a099492509f.csv,5e9cbc3999531a099492509f,bis_bas_survey,bis_bas_survey,question,item_4,BIS/BAS item 4,1,1,0,,,1418,1419,15256.10000000149,2395743.1000000015,,,,,,,,,,,,
data_5e9cbc3999531a099492509f.csv,5e9cbc3999531a099492509f,bis_bas_survey,bis_bas_survey,question,item_5,BIS/BAS item 5,1,1,0,,,1418,1419,15256.10000000149,2395743.1000000015,,,,,,,,,,,,
data_5e9cbc3999531a099492509f.csv,5e9cbc3999531a099492509f,bis_bas_survey,bis_bas_survey,question,item_6,BIS/BAS item 6,3,3,0,,,1418,1419,15256.10000000149,2395743.1000000015,,,,,,,,,,,,
data_5e9cbc3999531a099492509f.csv,5e9cbc3999531a099492509f,bis_bas_survey,bis_bas_survey,question,item_7,BIS/BAS item 7,2,2,0,,,1418,1419,15256.10000000149,2395743.1000000015,,,,,,,,,,,,
data_5e9cbc3999531a099492509f.csv,5e9cbc3999531a099492509f,bis_bas_survey,bis_bas_survey,question,item_8,BIS/BAS item 8,3,3,0,,,1418,1419,15256.10000000149,2395743.1000000015,,,,,,,,,,,,
data_5e9cbc3999531a099492509f.csv,5e9cbc3999531a099492509f,bis_bas_survey,bis_bas_survey,question,item_9,BIS/BAS item 9,1,1,0,,,1418,1419,15256.10000000149,2395743.1000000015,,,,,,,,,,,,
data_5e9cbc3999531a099492509f.csv,5e9cbc3999531a099492509f,bis_bas_survey,bis_bas_survey,question,item_10,BIS/BAS item 10,3,3,0,,,1418,1419,15256.10000000149,2395743.1000000015,,,,,,,,,,,,
data_5e9cbc3999531a099492509f.csv,5e9cbc3999531a099492509f,bis_bas_survey,bis_bas_survey,question,item_11,BIS/BAS item 11,1,1,0,,,1418,1419,15256.10000000149,2395743.1000000015,,,,,,,,,,,,
data_5e9cbc3999531a099492509f.csv,5e9cbc3999531a099492509f,bis_bas_survey,bis_bas_survey,question,item_12,BIS/BAS item 12,3,3,0,,,1418,1419,15256.10000000149,2395743.1000000015,,,,,,,,,,,,
data_5e9cbc3999531a099492509f.csv,5e9cbc3999531a099492509f,bis_bas_survey,bis_bas_survey,question,item_13,BIS/BAS item 13,3,3,0,,,1418,1419,15256.10000000149,2395743.1000000015,,,,,,,,,,,,
data_5e9cbc3999531a099492509f.csv,5e9cbc3999531a099492509f,bis_bas_survey,bis_bas_survey,question,item_14,BIS/BAS item 14,2,2,0,,,1418,1419,15256.10000000149,2395743.1000000015,,,,,,,,,,,,
data_5e9cbc3999531a099492509f.csv,5e9cbc3999531a099492509f,bis_bas_survey,bis_bas_survey,question,item_15,BIS/BAS item 15,3,3,0,,,1418,1419,15256.10000000149,2395743.1000000015,,,,,,,,,,,,
data_5e9cbc3999531a099492509f.csv,5e9cbc3999531a099492509f,bis_bas_survey,bis_bas_survey,question,item_16,BIS/BAS item 16,3,3,0,,,1418,1419,15256.10000000149,2395743.1000000015,,,,,,,,,,,,
data_5e9cbc3999531a099492509f.csv,5e9cbc3999531a099492509f,bis_bas_survey,bis_bas_survey,question,item_17,BIS/BAS item 17,1,1,0,,,1418,1419,15256.10000000149,2395743.1000000015,,,,,,,,,,,,
data_5e9cbc3999531a099492509f.csv,5e9cbc3999531a099492509f,bis_bas_survey,bis_bas_survey,question,item_18,BIS/BAS item 18,3,2,1,,,1418,1419,15256.10000000149,2395743.1000000015,,,,,,,,,,,,
data_5e9cbc3999531a099492509f.csv,5e9cbc3999531a099492509f,bis_bas_survey,bis_bas_survey,question,item_19,BIS/BAS item 19,2,2,0,,,1418,1419,15256.10000000149,2395743.1000000015,,,,,,,,,,,,
data_5e9cbc3999531a099492509f.csv,5e9cbc3999531a099492509f,bis_bas_survey,bis_bas_survey,question,item_20,BIS/BAS item 20,2,2,0,,,1418,1419,15256.10000000149,2395743.1000000015,,,,,,,,,,,,
data_5e9cbc3999531a099492509f.csv,5e9cbc3999531a099492509f,bis_bas_survey,bis_bas_survey,score,bisbas_raw_total,bisbas_raw_total,42,,,,,1418,1419,15256.10000000149,2395743.1000000015,,,,,,,,,,,,
data_5e9cbc3999531a099492509f.csv,5e9cbc3999531a099492509f,bis_bas_survey,bis_bas_survey,score,bisbas_raw_mean,bisbas_raw_mean,2.1,,,,,1418,1419,15256.10000000149,2395743.1000000015,,,,,,,,,,,,
data_5e9cbc3999531a099492509f.csv,5e9cbc3999531a099492509f,bis_bas_survey,bis_bas_survey,score,bisbas_scored_total,bisbas_scored_total,42,,,,,1418,1419,15256.10000000149,2395743.1000000015,,,,,,,,,,,,
data_5e9cbc3999531a099492509f.csv,5e9cbc3999531a099492509f,bis_bas_survey,bis_bas_survey,score,bisbas_scored_mean,bisbas_scored_mean,2.1,,,,,1418,1419,15256.10000000149,2395743.1000000015,,,,,,,,,,,,
data_5e9cbc3999531a099492509f.csv,5e9cbc3999531a099492509f,bis_bas_survey,bis_bas_survey,score,bis_score_sum,bis_score_sum,19,,,,,1418,1419,15256.10000000149,2395743.1000000015,,,,,,,,,,,,
data_5e9cbc3999531a099492509f.csv,5e9cbc3999531a099492509f,bis_bas_survey,bis_bas_survey,score,bis_score_mean,bis_score_mean,2.7142857142857144,,,,,1418,1419,15256.10000000149,2395743.1000000015,,,,,,,,,,,,
data_5e9cbc3999531a099492509f.csv,5e9cbc3999531a099492509f,bis_bas_survey,bis_bas_survey,score,bas_drive_sum,bas_drive_sum,6,,,,,1418,1419,15256.10000000149,2395743.1000000015,,,,,,,,,,,,
data_5e9cbc3999531a099492509f.csv,5e9cbc3999531a099492509f,bis_bas_survey,bis_bas_survey,score,bas_drive_mean,bas_drive_mean,1.5,,,,,1418,1419,15256.10000000149,2395743.1000000015,,,,,,,,,,,,
data_5e9cbc3999531a099492509f.csv,5e9cbc3999531a099492509f,bis_bas_survey,bis_bas_survey,score,bas_fun_seeking_sum,bas_fun_seeking_sum,10,,,,,1418,1419,15256.10000000149,2395743.1000000015,,,,,,,,,,,,
data_5e9cbc3999531a099492509f.csv,5e9cbc3999531a099492509f,bis_bas_survey,bis_bas_survey,score,bas_fun_seeking_mean,bas_fun_seeking_mean,2.5,,,,,1418,1419,15256.10000000149,2395743.1000000015,,,,,,,,,,,,
data_5e9cbc3999531a099492509f.csv,5e9cbc3999531a099492509f,bis_bas_survey,bis_bas_survey,score,bas_reward_responsiveness_sum,bas_reward_responsiveness_sum,7,,,,,1418,1419,15256.10000000149,2395743.1000000015,,,,,,,,,,,,
data_5e9cbc3999531a099492509f.csv,5e9cbc3999531a099492509f,bis_bas_survey,bis_bas_survey,score,bas_reward_responsiveness_mean,bas_reward_responsiveness_mean,1.4,,,,,1418,1419,15256.10000000149,2395743.1000000015,,,,,,,,,,,,
data_5e9cbc3999531a099492509f.csv,5e9cbc3999531a099492509f,bis_bas_survey,bis_bas_survey,score,bas_total_sum,bas_total_sum,23,,,,,1418,1419,15256.10000000149,2395743.1000000015,,,,,,,,,,,,
data_5e9cbc3999531a099492509f.csv,5e9cbc3999531a099492509f,bis_bas_survey,bis_bas_survey,score,bas_total_mean,bas_total_mean,1.7692307692307692,,,,,1418,1419,15256.10000000149,2395743.1000000015,,,,,,,,,,,,
data_5e9cbc3999531a099492509f.csv,5e9cbc3999531a099492509f,color_blind_survey,color_blind_survey_plate,question,ishihara_1,Practice,12,true,,12,false,,1422,11600,,1,ishihara_1,Practice,TexturePack/colorblind/500px-Ishihara_1.svg.png,,,,,,,,
data_5e9cbc3999531a099492509f.csv,5e9cbc3999531a099492509f,color_blind_survey,color_blind_survey_plate,question,ishihara_9,Plate 1,74,true,,74,true,,1423,4306,,2,ishihara_9,Plate 1,TexturePack/colorblind/500px-Ishihara_9.svg.png,,,,,,,,
data_5e9cbc3999531a099492509f.csv,5e9cbc3999531a099492509f,color_blind_survey,color_blind_survey_plate,question,ishihara_11,Plate 2,6,true,,6,true,,1424,10162,,3,ishihara_11,Plate 2,TexturePack/colorblind/500px-Ishihara_11.PNG,,,,,,,,
data_5e9cbc3999531a099492509f.csv,5e9cbc3999531a099492509f,color_blind_survey,color_blind_survey_plate,question,ishihara_23,Plate 3,42,true,,42,true,,1425,2811,,4,ishihara_23,Plate 3,TexturePack/colorblind/500px-Ishihara_23.PNG,,,,,,,,
data_5e9cbc3999531a099492509f.csv,5e9cbc3999531a099492509f,color_blind_survey,color_blind_survey_summary,score,n_items_total,n_items_total,4,,,,,,1426,,,,,,,,,,,,,,
data_5e9cbc3999531a099492509f.csv,5e9cbc3999531a099492509f,color_blind_survey,color_blind_survey_summary,score,n_items_scored,n_items_scored,3,,,,,,1426,,,,,,,,,,,,,,
data_5e9cbc3999531a099492509f.csv,5e9cbc3999531a099492509f,color_blind_survey,color_blind_survey_summary,score,n_correct_scored,n_correct_scored,3,,,,,,1426,,,,,,,,,,,,,,
data_5e9cbc3999531a099492509f.csv,5e9cbc3999531a099492509f,color_blind_survey,color_blind_survey_summary,score,accuracy_scored,accuracy_scored,1,,,,,,1426,,,,,,,,,,,,,,
data_5e9cbc3999531a099492509f.csv,5e9cbc3999531a099492509f,color_blind_survey,color_blind_survey_summary,score,passed_all_scored,passed_all_scored,true,,,,,,1426,,,,,,,,,,,,,,
data_5e9cbc3999531a099492509f.csv,5e9cbc3999531a099492509f,five_dcr_survey,five_dcr_survey,question,q1,5DCR question 1,6,6,0,,,,1421,152337,,,,,,,,,,,,,
data_5e9cbc3999531a099492509f.csv,5e9cbc3999531a099492509f,five_dcr_survey,five_dcr_survey,question,q2,5DCR question 2,4,4,0,,,,1421,152337,,,,,,,,,,,,,
data_5e9cbc3999531a099492509f.csv,5e9cbc3999531a099492509f,five_dcr_survey,five_dcr_survey,question,q3,5DCR question 3,6,6,0,,,,1421,152337,,,,,,,,,,,,,
data_5e9cbc3999531a099492509f.csv,5e9cbc3999531a099492509f,five_dcr_survey,five_dcr_survey,question,q4,5DCR question 4,6,6,0,,,,1421,152337,,,,,,,,,,,,,
data_5e9cbc3999531a099492509f.csv,5e9cbc3999531a099492509f,five_dcr_survey,five_dcr_survey,question,q5,5DCR question 5,4,4,0,,,,1421,152337,,,,,,,,,,,,,
data_5e9cbc3999531a099492509f.csv,5e9cbc3999531a099492509f,five_dcr_survey,five_dcr_survey,question,q6,5DCR question 6,4,4,0,,,,1421,152337,,,,,,,,,,,,,
data_5e9cbc3999531a099492509f.csv,5e9cbc3999531a099492509f,five_dcr_survey,five_dcr_survey,question,q7,5DCR question 7,4,4,0,,,,1421,152337,,,,,,,,,,,,,
data_5e9cbc3999531a099492509f.csv,5e9cbc3999531a099492509f,five_dcr_survey,five_dcr_survey,question,q8,5DCR question 8,4,4,0,,,,1421,152337,,,,,,,,,,,,,
data_5e9cbc3999531a099492509f.csv,5e9cbc3999531a099492509f,five_dcr_survey,five_dcr_survey,question,q9,5DCR question 9,4,4,1,,,,1421,152337,,,,,,,,,,,,,
data_5e9cbc3999531a099492509f.csv,5e9cbc3999531a099492509f,five_dcr_survey,five_dcr_survey,question,q10,5DCR question 10,2,6,1,,,,1421,152337,,,,,,,,,,,,,
data_5e9cbc3999531a099492509f.csv,5e9cbc3999531a099492509f,five_dcr_survey,five_dcr_survey,question,q11,5DCR question 11,3,5,1,,,,1421,152337,,,,,,,,,,,,,
data_5e9cbc3999531a099492509f.csv,5e9cbc3999531a099492509f,five_dcr_survey,five_dcr_survey,question,q12,5DCR question 12,2,6,1,,,,1421,152337,,,,,,,,,,,,,
data_5e9cbc3999531a099492509f.csv,5e9cbc3999531a099492509f,five_dcr_survey,five_dcr_survey,question,q13,5DCR question 13,4,4,0,,,,1421,152337,,,,,,,,,,,,,
data_5e9cbc3999531a099492509f.csv,5e9cbc3999531a099492509f,five_dcr_survey,five_dcr_survey,question,q14,5DCR question 14,3,3,0,,,,1421,152337,,,,,,,,,,,,,
data_5e9cbc3999531a099492509f.csv,5e9cbc3999531a099492509f,five_dcr_survey,five_dcr_survey,question,q15,5DCR question 15,4,4,0,,,,1421,152337,,,,,,,,,,,,,
data_5e9cbc3999531a099492509f.csv,5e9cbc3999531a099492509f,five_dcr_survey,five_dcr_survey,question,q16,5DCR question 16,4,4,0,,,,1421,152337,,,,,,,,,,,,,
